proband_id,test_name,condition,blockn,trialn,n,positions,symbols,correct,pcorrect,rt,responses
sam,corsi_ext,simultaneous_a,0,0,2,"[(-182, 177), (143, 234), (184, -51), (116, -275)]",cc,1,0.5,2151,"[(0, 1184, 'c'), (1, 699, 'c')]"
sam,corsi_ext,simultaneous_a,0,1,2,"[(10, -87), (324, 83), (257, 237), (-303, -63)]",cc,1,0.5,1333,"[(0, 625, 'c'), (1, 441, 'c')]"
sam,corsi_ext,simultaneous_a,0,2,2,"[(54, -226), (278, 329), (-155, -248), (-299, 9)]",cc,1,0.5,1724,"[(0, 729, 'c'), (1, 726, 'c')]"
sam,corsi_ext,simultaneous_a,0,3,2,"[(200, 195), (220, -95), (-27, -25), (-262, -48)]",cc,1,0.5,2131,"[(0, 1193, 'c'), (1, 666, 'c')]"
sam,corsi_ext,simultaneous_a,0,4,2,"[(104, 1), (-139, -229), (-319, 100), (242, 214)]",cc,1,0.5,1808,"[(1, 1060, 'c'), (0, 483, 'c')]"
sam,corsi_ext,simultaneous_a,0,5,2,"[(-112, -300), (-218, -31), (-143, 211), (298, 84)]",cc,1,0.5,1987,"[(1, 954, 'c'), (0, 772, 'c')]"
sam,corsi_ext,simultaneous_a,0,6,2,"[(143, 156), (-79, 143), (42, 51), (156, 235)]",cc,1,0.5,1788,"[(1, 866, 'c'), (0, 658, 'c')]"
sam,corsi_ext,simultaneous_a,0,7,2,"[(347, 16), (124, 96), (-267, -254), (205, 188)]",cc,1,0.5,1849,"[(1, 1089, 'c'), (0, 496, 'c')]"
sam,corsi_ext,simultaneous_a,0,8,2,"[(148, 238), (-212, -316), (-34, 299), (-264, 104)]",cc,1,0.5,2467,"[(1, 1371, 'c'), (0, 833, 'c')]"
sam,corsi_ext,simultaneous_a,0,9,2,"[(104, -225), (135, 259), (124, -51), (-132, 133)]",cc,1,0.5,2051,"[(0, 1095, 'c'), (1, 691, 'c')]"
sam,corsi_ext,simultaneous_a,0,0,3,"[(178, 285), (311, -307), (127, 74), (-24, -291), (305, 320), (111, -324)]",ccc,1,0.333333333333,2430,"[(0, 1094, 'c'), (2, 380, 'c'), (1, 555, 'c')]"
sam,corsi_ext,simultaneous_a,0,1,3,"[(-275, 272), (212, -149), (297, 83), (-143, -131), (-126, 137), (-301, -54)]",ccc,1,0.333333333333,3471,"[(0, 975, 'c'), (1, 666, 'c'), (2, 381, 'c')]"
sam,corsi_ext,simultaneous_a,0,2,3,"[(198, 184), (-331, -255), (-305, -341), (-201, 70), (137, -11), (-314, 8)]",ccc,1,0.333333333333,2507,"[(2, 1039, 'c'), (1, 345, 'c'), (0, 733, 'c')]"
sam,corsi_ext,simultaneous_a,0,3,3,"[(-331, -166), (42, 30), (-301, -299), (-235, -155), (-271, -72), (-89, -217)]",ccc,1,0.333333333333,2185,"[(2, 1022, 'c'), (0, 285, 'c'), (1, 480, 'c')]"
sam,corsi_ext,simultaneous_a,0,4,3,"[(-268, -271), (54, -142), (72, 58), (-97, 347), (-9, -245), (326, -117)]",ccc,1,0.333333333333,2754,"[(2, 994, 'c'), (1, 427, 'c'), (0, 935, 'c')]"
sam,corsi_ext,simultaneous_a,0,5,3,"[(-342, 18), (-86, -121), (261, -105), (336, -143), (-344, -252), (-255, -301)]",ccc,1,0.333333333333,2715,"[(0, 1233, 'c'), (1, 412, 'c'), (2, 667, 'c')]"
sam,corsi_ext,simultaneous_a,0,6,3,"[(0, -244), (-13, 99), (248, 144), (-112, 273), (-203, 331), (-30, -122)]",ccc,1,0.333333333333,2360,"[(0, 869, 'c'), (1, 673, 'c'), (2, 420, 'c')]"
sam,corsi_ext,simultaneous_a,0,7,3,"[(45, 281), (-73, -323), (30, -333), (241, 145), (83, -154), (-81, 116)]",ccc,1,0.333333333333,2439,"[(1, 812, 'c'), (2, 264, 'c'), (0, 969, 'c')]"
sam,corsi_ext,simultaneous_a,0,8,3,"[(286, -159), (-30, 149), (122, 30), (23, -103), (150, 339), (-19, -206)]",ccc,1,0.333333333333,2346,"[(1, 765, 'c'), (2, 595, 'c'), (0, 590, 'c')]"
sam,corsi_ext,simultaneous_a,0,9,3,"[(-184, 80), (153, -291), (187, 164), (233, -341), (-84, 117), (-296, 302)]",ccc,1,0.333333333333,2961,"[(1, 935, 'c'), (0, 463, 'c'), (2, 458, 'c')]"
sam,corsi_ext,simultaneous_a,0,0,4,"[(257, 166), (129, 316), (-272, 19), (33, 10), (-336, -281), (-206, -96), (125, -345), (170, -236)]",cccc,1,0.25,2793,"[(2, 943, 'c'), (3, 579, 'c'), (1, 426, 'c'), (0, 321, 'c')]"
sam,corsi_ext,simultaneous_a,0,1,4,"[(-302, -237), (151, -298), (212, -128), (-309, 95), (70, -81), (79, 292), (36, -347), (-128, -199)]",cccc,1,0.25,3293,"[(3, 811, 'c'), (0, 830, 'c'), (1, 729, 'c'), (2, 399, 'c')]"
sam,corsi_ext,simultaneous_a,0,2,4,"[(22, 117), (-206, 32), (-16, -188), (318, 307), (-318, 21), (94, -147), (-345, -125), (42, 211)]",cccc,1,0.25,3804,"[(3, 1099, 'c'), (0, 854, 'c'), (1, 670, 'c'), (2, 658, 'c')]"
sam,corsi_ext,simultaneous_a,0,3,4,"[(306, 283), (-321, -300), (23, -122), (183, 168), (-272, -161), (213, 289), (-147, 178), (-50, -210)]",cccc,1,0.25,2574,"[(1, 840, 'c'), (2, 422, 'c'), (3, 402, 'c'), (0, 380, 'c')]"
sam,corsi_ext,simultaneous_a,0,4,4,"[(220, 157), (-174, -172), (254, -301), (-105, -297), (124, 46), (-310, -191), (-134, 311), (113, -295)]",cccc,1,0.25,3643,"[(0, 1303, 'c'), (1, 620, 'c'), (3, 402, 'c'), (2, 783, 'c')]"
sam,corsi_ext,simultaneous_a,0,5,4,"[(189, 44), (-134, -308), (-314, -46), (-197, -4), (-10, 294), (-140, 343), (159, 215), (270, 226)]",cccc,1,0.25,2907,"[(1, 1169, 'c'), (2, 448, 'c'), (3, 318, 'c'), (0, 439, 'c')]"
sam,corsi_ext,simultaneous_a,0,6,4,"[(238, -68), (-176, 289), (59, 278), (-152, -315), (-346, -214), (165, -37), (119, 145), (-93, -225)]",cccc,1,0.25,3559,"[(3, 1152, 'c'), (0, 585, 'c'), (2, 553, 'c'), (1, 739, 'c')]"
sam,corsi_ext,simultaneous_a,0,7,4,"[(-198, 36), (321, -321), (143, -33), (16, 62), (60, 174), (106, -161), (-340, -175), (255, 231)]",cccc,1,0.25,3531,"[(0, 1219, 'c'), (3, 427, 'c'), (2, 525, 'c'), (1, 827, 'c')]"
sam,corsi_ext,simultaneous_a,0,8,4,"[(-201, -210), (76, -114), (-113, 239), (-40, 300), (75, 181), (-119, -337), (-215, 150), (34, 334)]",cccc,1,0.25,2909,"[(0, 921, 'c'), (1, 421, 'c'), (2, 681, 'c'), (3, 355, 'c')]"
sam,corsi_ext,simultaneous_a,0,9,4,"[(318, -125), (304, -33), (-339, 111), (246, 164), (82, -98), (224, -164), (-276, 196), (219, 39)]",cccc,1,0.25,4009,"[(3, 1440, 'c'), (2, 681, 'c'), (1, 1095, 'c'), (0, 262, 'c')]"
sam,corsi_ext,simultaneous_a,0,0,5,"[(324, 125), (64, 90), (244, 91), (-194, -33), (-76, -261), (75, -288), (184, -183), (28, -99), (-142, 217), (-29, 349)]",ccccc,1,0.2,2890,"[(4, 808, 'c'), (3, 473, 'c'), (1, 379, 'c'), (2, 435, 'c'), (0, 135, 'c')]"
sam,corsi_ext,simultaneous_a,0,1,5,"[(201, 124), (-342, -8), (83, 286), (-176, -288), (89, -69), (38, -350), (-76, -273), (-148, 170), (-264, 222), (-340, -137)]",ccccc,1,0.2,3501,"[(3, 768, 'c'), (1, 298, 'c'), (4, 541, 'c'), (0, 597, 'c'), (2, 395, 'c')]"
sam,corsi_ext,simultaneous_a,0,2,5,"[(-217, -127), (-31, 47), (135, 247), (270, 268), (-258, 276), (-123, -2), (117, -297), (31, -117), (332, 75), (271, -350)]",ccccc,1,0.2,3579,"[(0, 777, 'c'), (1, 316, 'c'), (4, 665, 'c'), (2, 943, 'c'), (3, 215, 'c')]"
sam,corsi_ext,simultaneous_a,0,3,5,"[(173, -216), (-260, -147), (-40, 240), (-327, -259), (-206, 42), (-325, 73), (-57, 1), (200, 185), (29, -93), (-246, -234)]",ccccc,1,0.2,3602,"[(3, 860, 'c'), (1, 246, 'c'), (4, 277, 'c'), (2, 854, 'c'), (0, 707, 'c')]"
sam,corsi_ext,simultaneous_a,0,4,5,"[(241, -7), (-3, -172), (-224, 29), (101, -206), (-314, 42), (234, -129), (291, -322), (49, 288), (-149, -290), (65, -100)]",ccccc,1,0.2,3129,"[(4, 749, 'c'), (2, 258, 'c'), (1, 807, 'c'), (3, 251, 'c'), (0, 401, 'c')]"
sam,corsi_ext,simultaneous_a,0,5,5,"[(171, -99), (316, -37), (-221, -258), (224, -191), (-335, 322), (74, -65), (-71, 55), (318, 278), (40, 223), (-316, 99)]",ccccc,1,0.2,3877,"[(4, 1225, 'c'), (2, 683, 'c'), (0, 556, 'c'), (3, 220, 'c'), (1, 534, 'c')]"
sam,corsi_ext,simultaneous_a,0,6,5,"[(336, 278), (103, 314), (-278, 278), (229, -112), (246, 52), (-325, -222), (-57, -163), (141, -306), (-19, -65), (262, -337)]",ccccc,1,0.2,3528,"[(2, 1224, 'c'), (1, 556, 'c'), (0, 400, 'c'), (4, 425, 'c'), (3, 263, 'c')]"
sam,corsi_ext,simultaneous_a,0,7,5,"[(310, -330), (-245, -253), (284, 17), (-280, 17), (148, -143), (-88, -176), (72, 160), (-123, -269), (92, -329), (247, -168)]",ccccc,1,0.2,3664,"[(3, 1001, 'c'), (1, 321, 'c'), (0, 725, 'c'), (4, 509, 'c'), (2, 448, 'c')]"
sam,corsi_ext,simultaneous_a,0,8,5,"[(-250, -24), (-1, 150), (-92, -41), (-304, 67), (-229, 196), (-8, -77), (-276, -160), (-271, -235), (107, -92), (218, -85)]",ccccc,1,0.2,2681,"[(2, 656, 'c'), (0, 225, 'c'), (3, 252, 'c'), (4, 442, 'c'), (1, 446, 'c')]"
sam,corsi_ext,simultaneous_a,0,9,5,"[(320, 229), (-331, 89), (215, -338), (-216, 328), (37, 227), (232, -19), (136, 74), (-98, 94), (164, 172), (-175, -156)]",ccccc,1,0.2,3658,"[(2, 880, 'c'), (1, 727, 'c'), (3, 623, 'c'), (4, 377, 'c'), (0, 390, 'c')]"
sam,corsi_ext,simultaneous_a,0,0,6,"[(-30, 284), (-320, 82), (45, -148), (-205, -36), (136, 308), (114, -322), (-136, 227), (238, 54), (197, 227), (68, 145), (-133, 140), (-25, -246)]",cccccc,1,0.166666666667,3269,"[(5, 765, 'c'), (2, 273, 'c'), (3, 384, 'c'), (1, 241, 'c'), (0, 483, 'c'), (4, 338, 'c')]"
sam,corsi_ext,simultaneous_a,0,1,6,"[(-183, -337), (-40, -342), (270, 196), (-331, -130), (-321, -1), (-56, -140), (73, -161), (-231, -66), (271, -276), (231, -107), (246, 296), (-128, -155)]",cccccc,1,0.166666666667,5566,"[(2, 1557, 'c'), (4, 1006, 'c'), (5, 646, 'c'), (3, 667, 'c'), (0, 459, 'c'), (1, 436, 'c')]"
sam,corsi_ext,simultaneous_a,0,2,6,"[(280, 292), (102, 47), (-113, -36), (336, -100), (15, -242), (12, -168), (162, -72), (208, 154), (218, -348), (-21, -317), (-25, -58), (13, 132)]",cccccc,1,0.166666666667,3409,"[(4, 853, 'c'), (5, 169, 'c'), (2, 343, 'c'), (1, 343, 'c'), (3, 416, 'c'), (0, 493, 'c')]"
sam,corsi_ext,simultaneous_a,0,3,6,"[(-290, -180), (-291, -336), (36, 259), (295, 313), (228, -319), (-166, 275), (344, -33), (-65, 28), (-310, 215), (-166, 85), (346, 210), (-281, 291)]",cccccc,1,0.166666666667,5323,"[(1, 721, 'c'), (0, 349, 'c'), (4, 759, 'c'), (5, 866, 'c'), (2, 414, 'c'), (3, 394, 'c')]"
sam,corsi_ext,simultaneous_a,0,4,6,"[(-283, 235), (133, -299), (-94, 32), (-29, -52), (-280, -15), (-317, -129), (-140, 134), (164, 254), (165, 7), (343, -336), (37, 21), (-230, 151)]",cccccc,1,0.166666666667,4210,"[(0, 1251, 'c'), (2, 461, 'c'), (3, 416, 'c'), (4, 341, 'c'), (5, 285, 'c'), (1, 656, 'c')]"
sam,corsi_ext,simultaneous_a,0,5,6,"[(-336, -336), (-75, -271), (-189, 335), (-339, -190), (41, 52), (-108, -166), (287, -176), (192, -263), (-329, -105), (169, 222), (-161, 26), (-237, -155)]",cccccc,1,0.166666666667,4123,"[(0, 1114, 'c'), (3, 323, 'c'), (2, 670, 'c'), (4, 446, 'c'), (5, 438, 'c'), (1, 344, 'c')]"
sam,corsi_ext,simultaneous_a,0,6,6,"[(-182, 198), (-347, -337), (-121, -328), (95, 279), (-91, 62), (-265, 308), (64, -216), (115, -52), (-256, 143), (-3, -145), (23, 41), (-198, -285)]",cccccc,1,0.166666666667,3963,"[(1, 1071, 'c'), (2, 469, 'c'), (5, 590, 'c'), (0, 263, 'c'), (4, 402, 'c'), (3, 381, 'c')]"
sam,corsi_ext,simultaneous_a,0,7,6,"[(-273, -257), (76, -287), (-30, -281), (12, 130), (-183, -291), (-242, 163), (-331, -337), (-77, 162), (-337, 18), (312, -264), (-233, -25), (-274, -101)]",cccccc,1,0.166666666667,4156,"[(0, 1331, 'c'), (4, 200, 'c'), (2, 550, 'c'), (1, 214, 'c'), (3, 426, 'c'), (5, 647, 'c')]"
sam,corsi_ext,simultaneous_a,0,8,6,"[(-237, 81), (-328, 162), (235, -241), (-217, -346), (-130, -148), (255, 261), (266, 142), (162, 67), (-13, 212), (-122, 75), (-68, 1), (-247, 224)]",cccccc,1,0.166666666667,5275,"[(3, 909, 'c'), (4, 365, 'c'), (2, 610, 'c'), (5, 611, 'c'), (1, 657, 'c'), (0, 289, 'c')]"
sam,corsi_ext,simultaneous_a,0,9,6,"[(274, 14), (140, 164), (-46, -50), (227, -86), (271, 254), (-19, 131), (-193, 136), (131, 2), (-342, 231), (124, -69), (-348, -321), (-67, 212)]",cccccc,1,0.166666666667,3724,"[(2, 807, 'c'), (5, 516, 'c'), (1, 308, 'c'), (4, 554, 'c'), (0, 497, 'c'), (3, 252, 'c')]"
sam,corsi_ext,simultaneous_a,0,0,7,"[(160, 335), (-18, 192), (17, -337), (-64, 72), (104, 178), (338, 222), (-162, -97), (18, -124), (98, 2), (-142, 79), (-308, -24), (121, -185), (-302, -326), (-90, -241)]",ccccccc,1,0.142857142857,4915,"[(2, 755, 'c'), (6, 472, 'c'), (3, 815, 'c'), (1, 437, 'c'), (0, 380, 'c'), (5, 527, 'c'), (4, 599, 'c')]"
sam,corsi_ext,simultaneous_a,0,1,7,"[(269, -183), (-153, -30), (272, -113), (10, -76), (-36, 47), (195, 259), (-210, 63), (-4, -211), (300, 316), (-338, 316), (144, 63), (85, -57), (274, 71), (97, -326)]",ccccccc,1,0.142857142857,4615,"[(0, 1278, 'c'), (2, 216, 'c'), (3, 441, 'c'), (1, 409, 'c'), (6, 356, 'c'), (5, 473, 'c'), (4, 519, 'c')]"
sam,corsi_ext,simultaneous_a,0,2,7,"[(114, 295), (216, 344), (137, -190), (-63, 301), (-40, 36), (-119, 121), (-252, -58), (44, -89), (34, 287), (308, -16), (310, 174), (-271, 235), (-73, -315), (-151, -95)]",ccccccc,0,0.0,4299,"[(1, 1431, 'c'), (0, 283, 'c'), (3, 493, 'c'), (5, 379, 'c'), (4, 238, 'c'), (13, 810, 'c')]"
sam,corsi_ext,simultaneous_a,0,3,7,"[(142, 81), (147, 349), (-13, -249), (227, -37), (-185, 315), (-194, -193), (-112, 191), (262, -295), (-237, -57), (90, -283), (110, 240), (326, 199), (-52, 302), (-338, 347)]",ccccccc,1,0.142857142857,6529,"[(1, 1170, 'c'), (4, 615, 'c'), (6, 367, 'c'), (0, 803, 'c'), (3, 366, 'c'), (2, 621, 'c'), (5, 428, 'c')]"
sam,corsi_ext,simultaneous_a,0,4,7,"[(34, 346), (-247, -196), (-107, 244), (211, 71), (-23, -328), (272, -188), (241, -12), (-181, 293), (-201, -107), (187, 322), (-67, -226), (331, 174), (260, 267), (171, -90)]",ccccccc,1,0.142857142857,4868,"[(2, 867, 'c'), (0, 440, 'c'), (1, 698, 'c'), (4, 575, 'c'), (5, 506, 'c'), (6, 585, 'c'), (3, 264, 'c')]"
sam,corsi_ext,simultaneous_a,0,5,7,"[(74, 337), (-274, -74), (304, 9), (-208, 20), (-139, -180), (-30, 299), (-350, 89), (-324, -245), (106, 264), (113, 109), (67, -120), (235, 241), (-43, -282), (201, -134)]",ccccccc,1,0.142857142857,5934,"[(5, 1341, 'c'), (0, 939, 'c'), (6, 1018, 'c'), (3, 413, 'c'), (1, 249, 'c'), (4, 426, 'c'), (2, 623, 'c')]"
sam,corsi_ext,simultaneous_a,0,6,7,"[(-193, 289), (-341, -193), (73, -214), (207, -217), (80, -292), (310, -335), (-257, -225), (-62, -300), (149, -75), (-95, 340), (-205, 124), (-74, -143), (-16, 216), (1, -159)]",ccccccc,1,0.142857142857,4737,"[(0, 868, 'c'), (1, 868, 'c'), (6, 181, 'c'), (4, 383, 'c'), (2, 214, 'c'), (3, 309, 'c'), (5, 995, 'c')]"
sam,corsi_ext,simultaneous_a,0,7,7,"[(275, -300), (172, -145), (-319, -155), (233, 342), (104, 3), (186, -23), (-344, 125), (145, 84), (79, 333), (-7, 328), (-199, -139), (338, -191), (-224, 94), (19, 0)]",ccccccc,1,0.142857142857,4686,"[(2, 916, 'c'), (6, 541, 'c'), (3, 657, 'c'), (4, 448, 'c'), (5, 171, 'c'), (0, 449, 'c'), (1, 575, 'c')]"
sam,corsi_ext,simultaneous_a,0,8,7,"[(178, 206), (204, -28), (-168, -149), (31, -42), (-225, 166), (276, -198), (-243, -282), (-58, -132), (105, 297), (-53, -281), (337, 316), (-321, 194), (285, -1), (-312, 296)]",ccccccc,1,0.142857142857,4207,"[(6, 914, 'c'), (2, 259, 'c'), (4, 390, 'c'), (3, 528, 'c'), (0, 530, 'c'), (1, 299, 'c'), (5, 361, 'c')]"
sam,corsi_ext,simultaneous_a,0,9,7,"[(283, -127), (310, -314), (11, -157), (273, 317), (-116, 230), (-248, -164), (-126, 12), (-30, 153), (-34, 19), (254, 24), (194, 257), (-1, -234), (24, -347), (-131, -236)]",ccccccc,0,0.0,1598,"[(3, 1061, 'c'), (10, 403, 'c')]"
sam,corsi_ext,simultaneous_a,0,0,8,"[(20, 150), (-218, -341), (349, 266), (-308, -15), (-345, 298), (288, 162), (36, -322), (-153, -161), (-206, 289), (107, -271), (-84, -79), (-180, -247), (299, -334), (305, -9), (224, -190), (-69, 105)]",cccccccc,1,0.125,6575,"[(1, 1113, 'c'), (6, 461, 'c'), (7, 367, 'c'), (3, 361, 'c'), (4, 755, 'c'), (0, 486, 'c'), (2, 959, 'c'), (5, 527, 'c')]"
sam,corsi_ext,simultaneous_a,0,1,8,"[(-253, 3), (104, -261), (-192, 230), (46, 140), (-294, 180), (206, 321), (-219, 147), (-315, -96), (305, 56), (-142, -310), (-342, -26), (-330, 93), (-169, -154), (-48, -242), (-153, 345), (144, 96)]",cccccccc,1,0.125,4699,"[(7, 753, 'c'), (0, 230, 'c'), (4, 373, 'c'), (6, 251, 'c'), (2, 231, 'c'), (5, 578, 'c'), (3, 420, 'c'), (1, 806, 'c')]"
sam,corsi_ext,simultaneous_a,0,2,8,"[(59, -108), (331, 342), (0, 26), (-152, 316), (-160, -96), (-87, 146), (191, 157), (33, -199), (114, -36), (-50, -213), (-109, -320), (-200, -283), (111, -316), (-25, -70), (-287, -113), (292, -239)]",cccccccc,1,0.125,4905,"[(7, 953, 'c'), (0, 266, 'c'), (4, 458, 'c'), (2, 369, 'c'), (5, 528, 'c'), (3, 388, 'c'), (6, 459, 'c'), (1, 423, 'c')]"
sam,corsi_ext,simultaneous_a,0,3,8,"[(-218, -147), (-223, 337), (315, 218), (63, 242), (10, -109), (-44, -217), (-270, 253), (-324, -103), (344, -282), (235, -80), (-256, 179), (-274, 96), (43, 61), (206, 255), (270, 49), (-164, 112)]",cccccccc,1,0.125,6129,"[(2, 1225, 'c'), (3, 542, 'c'), (1, 774, 'c'), (6, 321, 'c'), (7, 566, 'c'), (0, 667, 'c'), (5, 519, 'c'), (4, 267, 'c')]"
sam,corsi_ext,simultaneous_a,0,4,8,"[(24, -238), (-293, 305), (162, -134), (64, 316), (130, 120), (-168, -342), (-203, 160), (336, 152), (-233, 53), (261, 333), (21, -90), (124, -19), (210, 74), (-51, -144), (135, 289), (-347, -135)]",cccccccc,1,0.125,7042,"[(5, 1154, 'c'), (0, 294, 'c'), (2, 503, 'c'), (1, 1000, 'c'), (6, 541, 'c'), (3, 950, 'c'), (4, 322, 'c'), (7, 402, 'c')]"
sam,corsi_ext,simultaneous_a,0,5,8,"[(266, -95), (18, -77), (-101, -321), (-42, 148), (-118, 224), (-273, -117), (-256, -228), (220, -199), (-170, -70), (203, 26), (326, 81), (-293, 57), (323, -198), (91, 150), (55, 236), (224, -282)]",cccccccc,1,0.125,5362,"[(4, 1398, 'c'), (3, 284, 'c'), (0, 752, 'c'), (7, 259, 'c'), (1, 387, 'c'), (5, 519, 'c'), (6, 252, 'c'), (2, 446, 'c')]"
sam,corsi_ext,simultaneous_a,0,6,8,"[(297, -270), (-81, 209), (235, 250), (-103, -344), (-254, -90), (-330, -62), (110, 185), (139, -186), (-53, 111), (316, 54), (-276, -309), (-7, -102), (1, -274), (-219, 100), (-331, 337), (-88, -202)]",cccccccc,0,0.0,3513,"[(3, 1236, 'c'), (5, 641, 'c'), (4, 278, 'c'), (1, 562, 'c'), (8, 264, 'c')]"
sam,corsi_ext,simultaneous_a,0,7,8,"[(44, 222), (148, -236), (325, 74), (81, -49), (326, -91), (-343, 199), (-315, 111), (-76, -72), (-214, 14), (-63, -326), (86, -333), (153, -108), (90, 136), (-324, 347), (-163, 183), (184, 76)]",cccccccc,1,0.125,5659,"[(5, 1057, 'c'), (6, 357, 'c'), (0, 751, 'c'), (7, 518, 'c'), (3, 468, 'c'), (2, 575, 'c'), (4, 321, 'c'), (1, 551, 'c')]"
sam,corsi_ext,simultaneous_a,0,8,8,"[(-140, -178), (323, 345), (230, -172), (-337, 121), (81, 73), (37, 196), (-102, -42), (-107, 261), (348, -307), (286, 255), (-260, -339), (96, 296), (209, -47), (-326, 13), (-59, -204), (-104, -329)]",cccccccc,0,0.0,5989,"[(2, 904, 'c'), (0, 611, 'c'), (6, 340, 'c'), (3, 707, 'c'), (7, 518, 'c'), (4, 527, 'c'), (1, 438, 'c'), (9, 1019, 'c')]"
sam,corsi_ext,simultaneous_a,0,9,8,"[(-7, -206), (259, -282), (-219, 218), (-208, -38), (91, -187), (-66, 160), (-101, -243), (325, -119), (-110, 46), (211, 22), (-321, -14), (-350, -289), (-26, 2), (300, 63), (135, -112), (103, 252)]",cccccccc,1,0.125,4989,"[(2, 1087, 'c'), (5, 483, 'c'), (3, 468, 'c'), (6, 450, 'c'), (0, 258, 'c'), (4, 450, 'c'), (1, 354, 'c'), (7, 379, 'c')]"
sam,corsi_ext,simultaneous_a,0,0,9,"[(-327, -165), (-115, -338), (-292, 172), (-247, -140), (0, -330), (283, 70), (111, 141), (-312, -1), (-205, 288), (31, -208), (-14, 281), (-192, 179), (-62, -38), (348, -127), (235, -246), (193, 261), (211, -89), (154, -216)]",ccccccccc,0,0.0,4341,"[(4, 835, 'c'), (1, 311, 'c'), (3, 519, 'c'), (0, 271, 'c'), (7, 316, 'c'), (8, 976, 'c'), (11, 315, 'c')]"
sam,corsi_ext,simultaneous_a,0,1,9,"[(71, 303), (-30, -242), (-14, 175), (-302, -253), (-76, 275), (-294, 241), (177, -345), (133, 229), (218, 307), (243, -124), (203, 110), (-279, 344), (-160, 121), (-311, 165), (119, -243), (-257, -17), (-334, -165), (329, -256)]",ccccccccc,1,0.111111111111,7130,"[(6, 881, 'c'), (1, 493, 'c'), (3, 556, 'c'), (5, 1172, 'c'), (4, 849, 'c'), (2, 390, 'c'), (0, 413, 'c'), (8, 442, 'c'), (7, 750, 'c')]"
sam,corsi_ext,simultaneous_a,0,2,9,"[(-342, -170), (-331, -19), (-251, 18), (-119, -330), (-202, -164), (323, -145), (-111, 324), (-116, -222), (92, 302), (181, -146), (83, -308), (279, 312), (-281, 215), (-295, 132), (-15, 141), (-302, 334), (-34, -167), (289, 196)]",ccccccccc,1,0.111111111111,5622,"[(3, 1024, 'c'), (7, 225, 'c'), (0, 461, 'c'), (4, 251, 'c'), (1, 414, 'c'), (2, 240, 'c'), (6, 784, 'c'), (8, 485, 'c'), (5, 547, 'c')]"
sam,corsi_ext,simultaneous_a,0,3,9,"[(-80, 12), (-341, 248), (195, -78), (297, 186), (-152, 91), (-305, -103), (8, -213), (313, -347), (-224, 168), (148, 227), (-81, 156), (296, -42), (113, -149), (-2, 314), (-346, -305), (90, 34), (-199, -251), (-110, -133)]",ccccccccc,0,0.0,4819,"[(1, 848, 'c'), (8, 298, 'c'), (4, 261, 'c'), (0, 451, 'c'), (5, 611, 'c'), (3, 646, 'c'), (12, 912, 'c')]"
sam,corsi_ext,simultaneous_a,0,4,9,"[(-178, 37), (234, -127), (-106, -27), (204, 287), (-10, -36), (-145, 299), (-10, -265), (-164, 167), (151, -53), (174, -260), (-297, -328), (-269, -197), (-320, -124), (-37, 55), (332, 158), (341, 318), (-21, 267), (179, 164)]",ccccccccc,1,0.111111111111,5106,"[(6, 913, 'c'), (1, 486, 'c'), (8, 226, 'c'), (4, 483, 'c'), (2, 278, 'c'), (0, 229, 'c'), (7, 355, 'c'), (5, 511, 'c'), (3, 448, 'c')]"
sam,corsi_ext,simultaneous_a,0,5,9,"[(189, 224), (-251, -94), (-50, -181), (-54, 326), (-286, 195), (10, -266), (301, 253), (-198, 164), (-264, 344), (-270, -328), (312, -100), (-68, 247), (107, -144), (124, -288), (271, 337), (-86, 95), (59, 178), (-171, -229)]",ccccccccc,0,0.0,4418,"[(5, 852, 'c'), (2, 193, 'c'), (1, 335, 'c'), (4, 764, 'c'), (7, 399, 'c'), (0, 770, 'c'), (16, 320, 'c')]"
sam,corsi_ext,simultaneous_a,0,6,9,"[(115, 41), (6, -205), (-97, -16), (252, -46), (-234, 333), (-233, -151), (-117, -151), (139, 302), (-130, 98), (-128, 234), (-342, -68), (-79, -253), (-264, 3), (-33, 138), (193, -121), (-264, -324), (318, -232), (5, 63)]",ccccccccc,1,0.111111111111,5992,"[(1, 890, 'c'), (5, 519, 'c'), (6, 193, 'c'), (2, 317, 'c'), (8, 403, 'c'), (4, 874, 'c'), (7, 544, 'c'), (0, 400, 'c'), (3, 660, 'c')]"
sam,corsi_ext,simultaneous_a,0,7,9,"[(250, 27), (-310, -142), (-57, 276), (-72, 19), (17, -232), (-93, -115), (349, 236), (163, -156), (295, -135), (-336, 65), (-85, -189), (334, 105), (39, -313), (131, 84), (-344, 252), (-253, 3), (11, 140), (212, 165)]",ccccccccc,1,0.111111111111,6665,"[(1, 1525, 'c'), (5, 592, 'c'), (4, 391, 'c'), (3, 553, 'c'), (2, 485, 'c'), (6, 585, 'c'), (0, 415, 'c'), (8, 529, 'c'), (7, 399, 'c')]"
sam,corsi_ext,simultaneous_a,0,8,9,"[(345, -114), (-198, 108), (129, 311), (60, 171), (-62, -285), (-70, -192), (-223, -238), (347, 102), (-123, 3), (-224, -142), (-51, 311), (-206, -346), (282, 203), (22, -252), (-344, 20), (-328, -78), (-302, -317), (46, 81)]",ccccccccc,0,0.0,4917,"[(6, 1040, 'c'), (4, 1001, 'c'), (5, 243, 'c'), (8, 471, 'c'), (1, 366, 'c'), (2, 532, 'c'), (17, 468, 'c')]"
sam,corsi_ext,simultaneous_a,0,9,9,"[(318, -245), (-180, 138), (149, 14), (11, -98), (97, 263), (349, -338), (232, 227), (-151, -291), (-330, 173), (-64, -93), (-287, 53), (-98, 294), (342, 202), (-323, -27), (-82, -202), (-221, -133), (115, 100), (210, -126)]",ccccccccc,1,0.111111111111,6519,"[(8, 1020, 'c'), (1, 319, 'c'), (7, 600, 'c'), (3, 559, 'c'), (2, 410, 'c'), (4, 632, 'c'), (6, 352, 'c'), (0, 865, 'c'), (5, 568, 'c')]"
sam,corsi_ext,simultaneous_b,0,0,2,"[(275, -5), (-313, 297), (154, 73), (-310, -68)]",cx,1,0.5,2093,"[(0, 797, 'c'), (1, 1039, 'x')]"
sam,corsi_ext,simultaneous_b,0,1,2,"[(283, 319), (-133, -312), (122, -297), (95, 250)]",xc,1,0.5,2103,"[(1, 938, 'c'), (0, 901, 'x')]"
sam,corsi_ext,simultaneous_b,0,2,2,"[(63, 149), (132, -271), (298, 47), (75, 227)]",xc,1,0.5,1574,"[(1, 779, 'c'), (0, 531, 'x')]"
sam,corsi_ext,simultaneous_b,0,3,2,"[(333, 217), (-61, 221), (-213, 118), (57, 44)]",xc,1,0.5,1855,"[(1, 891, 'c'), (0, 707, 'x')]"
sam,corsi_ext,simultaneous_b,0,4,2,"[(318, -11), (344, -143), (-281, 194), (-231, 93)]",xc,1,0.5,1603,"[(1, 912, 'c'), (0, 424, 'x')]"
sam,corsi_ext,simultaneous_b,0,5,2,"[(171, 273), (84, -340), (0, -342), (-287, 94)]",xc,1,0.5,2117,"[(1, 1027, 'c'), (0, 828, 'x')]"
sam,corsi_ext,simultaneous_b,0,6,2,"[(91, -90), (316, 84), (163, 195), (267, 349)]",xc,1,0.5,1927,"[(1, 992, 'c'), (0, 667, 'x')]"
sam,corsi_ext,simultaneous_b,0,7,2,"[(334, -348), (83, -236), (242, -217), (-37, -236)]",cx,1,0.5,1936,"[(0, 952, 'c'), (1, 716, 'x')]"
sam,corsi_ext,simultaneous_b,0,8,2,"[(308, -73), (-44, -154), (-326, -170), (30, -298)]",xc,1,0.5,1887,"[(1, 1025, 'c'), (0, 600, 'x')]"
sam,corsi_ext,simultaneous_b,0,9,2,"[(102, 282), (-24, 102), (-89, 251), (186, -53)]",cx,1,0.5,2257,"[(0, 1357, 'c'), (1, 635, 'x')]"
sam,corsi_ext,simultaneous_b,0,0,3,"[(-45, 319), (209, 207), (52, 77), (56, -195), (-240, -189), (-344, 222)]",cxc,1,0.333333333333,4322,"[(2, 2962, 'c'), (0, 426, 'c'), (1, 540, 'x')]"
sam,corsi_ext,simultaneous_b,0,1,3,"[(311, 275), (-338, -305), (-189, 14), (-98, -258), (169, -298), (-49, 244)]",xcc,1,0.333333333333,2921,"[(1, 1267, 'c'), (2, 583, 'c'), (0, 670, 'x')]"
sam,corsi_ext,simultaneous_b,0,2,3,"[(-68, 149), (-345, -306), (103, -267), (-278, -163), (-312, -68), (67, 113)]",cxx,1,0.333333333333,3132,"[(0, 797, 'c'), (2, 796, 'x'), (1, 1144, 'x')]"
sam,corsi_ext,simultaneous_b,0,3,3,"[(140, 267), (-187, 282), (101, -146), (301, 150), (-91, 101), (-331, -21)]",xcc,1,0.333333333333,2871,"[(2, 896, 'c'), (1, 902, 'c'), (0, 681, 'x')]"
sam,corsi_ext,simultaneous_b,0,4,3,"[(-215, -80), (-104, 50), (78, -82), (-314, 324), (226, 223), (0, -145)]",xcx,1,0.333333333333,2425,"[(1, 958, 'c'), (0, 467, 'x'), (2, 600, 'x')]"
sam,corsi_ext,simultaneous_b,0,5,3,"[(197, -7), (-164, -150), (314, -349), (-307, 27), (-115, 6), (311, -216)]",xcx,1,0.333333333333,2802,"[(1, 1253, 'c'), (0, 526, 'x'), (2, 623, 'x')]"
sam,corsi_ext,simultaneous_b,0,6,3,"[(-288, -256), (-204, -261), (71, -242), (297, 18), (207, 88), (229, -226)]",xcx,1,0.333333333333,3554,"[(0, 2272, 'x'), (1, 355, 'c'), (2, 531, 'x')]"
sam,corsi_ext,simultaneous_b,0,7,3,"[(289, -256), (297, 6), (216, 31), (248, -66), (-290, 101), (295, 205)]",cxc,1,0.333333333333,2129,"[(0, 987, 'c'), (2, 472, 'c'), (1, 276, 'x')]"
sam,corsi_ext,simultaneous_b,0,8,3,"[(-229, -298), (218, -316), (101, 138), (-248, 127), (82, -269), (-58, -232)]",cxc,1,0.333333333333,2704,"[(1, 902, 'x'), (0, 853, 'c'), (2, 551, 'c')]"
sam,corsi_ext,simultaneous_b,0,9,3,"[(131, 250), (-206, -164), (-108, 345), (131, 102), (323, -234), (-175, -347)]",xcx,1,0.333333333333,2910,"[(1, 1117, 'c'), (2, 870, 'x'), (0, 533, 'x')]"
sam,corsi_ext,simultaneous_b,0,0,4,"[(-165, -200), (-96, -277), (332, -17), (-338, -265), (-135, 140), (210, -70), (200, 181), (105, -209)]",cxxc,1,0.25,2876,"[(3, 825, 'c'), (0, 450, 'c'), (1, 284, 'x'), (2, 786, 'x')]"
sam,corsi_ext,simultaneous_b,0,1,4,"[(-117, 105), (238, -250), (16, -259), (-334, -302), (-310, -84), (105, 270), (209, -42), (292, -335)]",xccx,1,0.25,3219,"[(0, 728, 'x'), (3, 632, 'x'), (2, 569, 'c'), (1, 751, 'c')]"
sam,corsi_ext,simultaneous_b,0,2,4,"[(-228, 216), (5, 3), (-85, 265), (-240, -223), (178, -85), (27, -222), (173, -169), (-222, 88)]",cxcx,1,0.25,3564,"[(3, 1089, 'x'), (1, 576, 'x'), (0, 773, 'c'), (2, 600, 'c')]"
sam,corsi_ext,simultaneous_b,0,3,4,"[(92, 277), (246, 269), (297, -328), (-212, -49), (-11, 179), (171, -141), (-292, -21), (7, -167)]",xxcc,1,0.25,2990,"[(2, 840, 'c'), (3, 596, 'c'), (0, 637, 'x'), (1, 393, 'x')]"
sam,corsi_ext,simultaneous_b,0,4,4,"[(-300, -236), (-298, 290), (344, 89), (48, -256), (-283, 162), (312, 261), (250, -191), (-204, 126)]",cxcx,1,0.25,4363,"[(0, 1050, 'c'), (1, 1237, 'x'), (3, 1018, 'x'), (2, 529, 'c')]"
sam,corsi_ext,simultaneous_b,0,5,4,"[(-11, 314), (273, 11), (-257, 323), (-9, 107), (-53, -81), (-232, -112), (-159, 193), (240, 339)]",xxcc,1,0.25,3652,"[(2, 1025, 'c'), (3, 470, 'c'), (0, 695, 'x'), (1, 937, 'x')]"
sam,corsi_ext,simultaneous_b,0,6,4,"[(-325, -131), (254, -312), (-325, 349), (-99, 4), (-68, -316), (7, -93), (37, -218), (21, 289)]",cxcx,1,0.25,3573,"[(2, 1089, 'c'), (0, 831, 'c'), (3, 461, 'x'), (1, 664, 'x')]"
sam,corsi_ext,simultaneous_b,0,7,4,"[(-187, 188), (-43, 10), (-220, -124), (229, 293), (-202, 341), (-237, -7), (-306, 328), (34, -131)]",ccxx,1,0.25,3709,"[(2, 1152, 'x'), (0, 590, 'c'), (1, 407, 'c'), (3, 656, 'x')]"
sam,corsi_ext,simultaneous_b,0,8,4,"[(-333, -341), (-98, -76), (-3, 17), (168, 347), (238, 344), (-87, 269), (64, 107), (-147, -180)]",cxxc,1,0.25,2588,"[(0, 1005, 'c'), (1, 449, 'x'), (2, 275, 'x'), (3, 327, 'c')]"
sam,corsi_ext,simultaneous_b,0,9,4,"[(-295, 246), (194, 329), (-246, 335), (22, 267), (-287, 41), (-282, -264), (163, 133), (-50, -227)]",xcxc,1,0.25,4886,"[(0, 2442, 'x'), (2, 761, 'x'), (3, 531, 'c'), (1, 620, 'c')]"
sam,corsi_ext,simultaneous_b,0,0,5,"[(231, 133), (-106, 310), (-25, 120), (-262, 196), (-62, -272), (-142, 226), (-220, -27), (201, -62), (-295, 349), (64, -3)]",cxcxx,1,0.2,3948,"[(4, 727, 'x'), (3, 901, 'x'), (1, 528, 'x'), (2, 541, 'c'), (0, 587, 'c')]"
sam,corsi_ext,simultaneous_b,0,1,5,"[(-345, 5), (280, -175), (227, -93), (35, 297), (-143, -153), (-143, 68), (-211, 317), (-297, 284), (-136, -316), (40, -316)]",xccxx,1,0.2,4793,"[(3, 1282, 'x'), (0, 857, 'x'), (4, 417, 'x'), (2, 538, 'c'), (1, 334, 'c')]"
sam,corsi_ext,simultaneous_b,0,2,5,"[(320, 121), (25, 181), (190, 91), (347, -24), (-21, -341), (-259, -209), (45, -230), (80, 1), (108, -317), (-219, -350)]",cxcxc,1,0.2,3967,"[(4, 1337, 'c'), (2, 706, 'c'), (0, 288, 'c'), (3, 319, 'x'), (1, 663, 'x')]"
sam,corsi_ext,simultaneous_b,0,3,5,"[(85, -140), (86, 182), (274, 56), (-26, -281), (-12, -49), (-153, -82), (-2, 189), (-223, 260), (-196, 45), (-272, -339)]",xxccc,1,0.2,4561,"[(3, 830, 'c'), (4, 325, 'c'), (2, 1502, 'c'), (0, 695, 'x'), (1, 552, 'x')]"
sam,corsi_ext,simultaneous_b,0,4,5,"[(320, -53), (-25, -345), (1, 282), (221, 59), (118, -115), (75, 198), (-322, 347), (-265, 270), (197, 331), (253, -221)]",xcxcx,1,0.2,4297,"[(1, 1204, 'c'), (3, 459, 'c'), (0, 367, 'x'), (4, 549, 'x'), (2, 695, 'x')]"
sam,corsi_ext,simultaneous_b,0,5,5,"[(-76, 62), (299, -174), (137, 33), (42, 301), (-345, 65), (-327, -42), (-231, -117), (38, -333), (6, -94), (60, -205)]",cxxcx,1,0.2,4520,"[(3, 1322, 'c'), (0, 344, 'c'), (4, 644, 'x'), (2, 686, 'x'), (1, 854, 'x')]"
sam,corsi_ext,simultaneous_b,0,6,5,"[(-89, -74), (-107, -184), (225, -94), (338, 223), (28, 175), (72, -196), (-296, 2), (188, 305), (-41, 252), (209, -285)]",xxccc,1,0.2,3943,"[(1, 853, 'x'), (0, 333, 'x'), (4, 681, 'c'), (2, 484, 'c'), (3, 931, 'c')]"
sam,corsi_ext,simultaneous_b,0,7,5,"[(-94, 11), (-226, -235), (86, 166), (-52, 94), (-43, -260), (12, 198), (-219, 325), (-311, -9), (226, -231), (-179, -124)]",xxccc,1,0.2,3149,"[(4, 734, 'c'), (1, 536, 'x'), (0, 509, 'x'), (3, 324, 'c'), (2, 390, 'c')]"
sam,corsi_ext,simultaneous_b,0,8,5,"[(272, 257), (347, -91), (-159, -315), (-294, 48), (-180, -117), (71, 201), (49, -310), (-238, -279), (135, -86), (-144, -19)]",cxxcc,1,0.2,4279,"[(2, 1254, 'x'), (1, 655, 'x'), (3, 739, 'c'), (4, 347, 'c'), (0, 629, 'c')]"
sam,corsi_ext,simultaneous_b,0,9,5,"[(221, 313), (102, 108), (274, -94), (252, 112), (152, -174), (-41, 198), (-192, -32), (-8, -240), (296, -217), (288, 32)]",cxxcx,1,0.2,3796,"[(4, 1045, 'x'), (2, 348, 'x'), (1, 566, 'x'), (3, 366, 'c'), (0, 809, 'c')]"
sam,corsi_ext,simultaneous_b,0,0,6,"[(-122, -90), (-277, 170), (1, -206), (-116, 288), (245, -162), (-186, -212), (214, -252), (-216, 264), (-284, -134), (91, -51), (-175, 97), (284, -88)]",cxcxxc,1,0.166666666667,4394,"[(3, 1248, 'x'), (1, 576, 'x'), (4, 684, 'x'), (2, 527, 'c'), (0, 311, 'c'), (5, 276, 'c')]"
sam,corsi_ext,simultaneous_b,0,1,6,"[(282, 10), (-30, 91), (-49, -343), (125, -92), (-280, -102), (-228, 343), (174, -211), (349, -101), (312, 298), (-186, -83), (-109, 140), (162, 18)]",xccxcx,1,0.166666666667,5189,"[(5, 1440, 'x'), (0, 636, 'x'), (3, 452, 'x'), (1, 635, 'c'), (4, 646, 'c'), (2, 595, 'c')]"
sam,corsi_ext,simultaneous_b,0,2,6,"[(266, -163), (-123, 173), (-314, -139), (280, -70), (-85, 68), (16, -106), (323, -347), (185, -32), (-233, 259), (8, 184), (287, 251), (-341, -42)]",xcxcxc,0,0.0,3729,"[(2, 1298, 'x'), (4, 537, 'x'), (1, 439, 'c'), (5, 376, 'c'), (3, 547, 'x')]"
sam,corsi_ext,simultaneous_b,0,3,6,"[(-70, 49), (153, -131), (-37, 328), (279, 136), (330, -121), (48, -90), (-132, 198), (-216, -194), (-337, 240), (-254, 333), (129, -335), (314, -310)]",xccxxc,1,0.166666666667,4612,"[(2, 1090, 'c'), (5, 572, 'c'), (1, 321, 'c'), (4, 646, 'x'), (3, 587, 'x'), (0, 597, 'x')]"
sam,corsi_ext,simultaneous_b,0,4,6,"[(325, 134), (-289, -209), (-83, -103), (-107, -296), (323, -45), (-128, -13), (343, 39), (-111, 120), (-230, -345), (-271, 163), (135, -248), (148, 38)]",ccxxxc,1,0.166666666667,4032,"[(3, 858, 'x'), (2, 368, 'x'), (4, 530, 'x'), (1, 530, 'c'), (5, 485, 'c'), (0, 470, 'c')]"
sam,corsi_ext,simultaneous_b,0,5,6,"[(232, 193), (-141, 133), (270, 8), (75, 349), (-330, -168), (74, 206), (3, -85), (-219, -325), (144, -21), (79, -131), (-307, -290), (168, 265)]",xxxccc,1,0.166666666667,4618,"[(4, 931, 'c'), (3, 889, 'c'), (5, 404, 'c'), (1, 423, 'x'), (0, 647, 'x'), (2, 534, 'x')]"
sam,corsi_ext,simultaneous_b,0,6,6,"[(-119, -79), (33, -238), (-244, -318), (136, 319), (-61, 14), (110, -14), (-111, 244), (-315, -248), (332, -29), (159, 157), (253, 200), (301, -308)]",cccxxx,1,0.166666666667,4392,"[(2, 1047, 'c'), (0, 413, 'c'), (1, 531, 'c'), (4, 540, 'x'), (5, 414, 'x'), (3, 656, 'x')]"
sam,corsi_ext,simultaneous_b,0,7,6,"[(344, 173), (40, 82), (124, -332), (96, -176), (214, -264), (-120, -318), (-238, 113), (130, -80), (316, -202), (-68, -55), (281, -79), (-304, -63)]",xcccxx,1,0.166666666667,4743,"[(0, 1082, 'x'), (4, 528, 'x'), (5, 682, 'x'), (2, 493, 'c'), (3, 450, 'c'), (1, 710, 'c')]"
sam,corsi_ext,simultaneous_b,0,8,6,"[(-329, 56), (-129, 339), (-16, 36), (-45, 293), (234, 14), (278, -240), (94, -259), (-349, 345), (-312, -200), (109, -156), (-149, 85), (133, 30)]",cxxccx,1,0.166666666667,5572,"[(1, 1657, 'x'), (2, 439, 'x'), (5, 711, 'x'), (0, 728, 'c'), (3, 531, 'c'), (4, 711, 'c')]"
sam,corsi_ext,simultaneous_b,0,9,6,"[(100, 3), (167, 340), (222, 243), (-255, 115), (-162, -208), (315, 87), (-343, -194), (-213, -83), (-73, -217), (42, 119), (-86, 319), (91, -322)]",cxcxcx,0,0.0,3524,"[(5, 1004, 'x'), (1, 509, 'x'), (3, 528, 'x'), (2, 484, 'c'), (9, 469, 'c')]"
sam,corsi_ext,simultaneous_b,0,0,7,"[(-67, 227), (-10, -192), (-318, 153), (-255, -181), (87, -156), (-263, -50), (319, 278), (-139, -253), (40, 71), (135, 194), (-146, 291), (-346, -198), (-181, 177), (-158, -177)]",ccxxcxx,1,0.142857142857,5249,"[(3, 1165, 'x'), (5, 311, 'x'), (2, 471, 'x'), (6, 851, 'x'), (0, 627, 'c'), (1, 609, 'c'), (4, 286, 'c')]"
sam,corsi_ext,simultaneous_b,0,1,7,"[(242, -333), (159, -147), (-309, 176), (141, 131), (312, 121), (208, 20), (-253, -84), (-315, -237), (-222, 323), (68, 26), (-55, -273), (-339, -345), (13, -59), (268, -127)]",cccxxxx,1,0.142857142857,5638,"[(2, 1159, 'c'), (6, 505, 'x'), (3, 633, 'x'), (5, 324, 'x'), (4, 855, 'x'), (1, 554, 'c'), (0, 681, 'c')]"
sam,corsi_ext,simultaneous_b,0,2,7,"[(-283, -230), (273, -296), (-294, -20), (-83, 179), (64, 313), (205, 10), (282, -180), (-238, -337), (-245, 271), (-314, -90), (322, -110), (199, -201), (310, 54), (-119, -343)]",xccxcxx,1,0.142857142857,5717,"[(4, 837, 'c'), (2, 556, 'c'), (1, 747, 'c'), (0, 711, 'x'), (6, 582, 'x'), (5, 434, 'x'), (3, 919, 'x')]"
sam,corsi_ext,simultaneous_b,0,3,7,"[(317, 67), (-250, -247), (212, -173), (-37, -101), (-67, -231), (-47, 295), (-286, 26), (-121, 63), (44, 314), (108, -124), (-272, 291), (188, -333), (78, -220), (-130, 292)]",xxcxccc,0,0.0,6410,"[(1, 3272, 'x'), (3, 425, 'x'), (0, 710, 'x'), (2, 579, 'c'), (12, 891, 'c')]"
sam,corsi_ext,simultaneous_b,0,4,7,"[(-142, -314), (235, 68), (-64, -307), (276, -51), (-334, 127), (-267, -135), (-295, 206), (-145, -10), (-23, -122), (-118, 185), (-292, -64), (-110, -186), (-238, -222), (285, -327)]",xccxcxx,0,0.0,4982,"[(1, 1569, 'c'), (3, 272, 'x'), (2, 799, 'c'), (0, 690, 'x'), (5, 1122, 'c')]"
sam,corsi_ext,simultaneous_b,0,5,7,"[(186, -317), (39, 286), (-249, 137), (-122, -9), (98, -279), (-51, 226), (-19, -195), (-299, 44), (179, -104), (-157, 219), (169, 32), (251, 104), (-23, -102), (314, 17)]",cxxxccc,1,0.142857142857,4939,"[(0, 903, 'c'), (4, 205, 'c'), (6, 308, 'c'), (2, 598, 'x'), (3, 529, 'x'), (5, 914, 'c'), (1, 554, 'x')]"
sam,corsi_ext,simultaneous_b,0,6,7,"[(23, 257), (327, -133), (235, -297), (-189, 124), (315, 343), (-138, -287), (12, -278), (-219, 295), (177, -141), (-233, -166), (-61, -71), (-63, -321), (-71, 177), (142, -235)]",cxxxccc,0,0.0,5075,"[(4, 1092, 'c'), (0, 435, 'c'), (3, 736, 'x'), (2, 991, 'x'), (1, 391, 'x'), (11, 761, 'c')]"
sam,corsi_ext,simultaneous_b,0,7,7,"[(-22, -201), (323, 109), (-188, -207), (264, 308), (333, -217), (-224, 279), (33, 273), (-217, -90), (22, -125), (-107, 260), (292, 5), (219, -199), (274, -323), (56, -206)]",xxccxcx,0,0.0,5965,"[(2, 1087, 'c'), (5, 706, 'c'), (3, 763, 'c'), (6, 588, 'x'), (4, 566, 'x'), (0, 692, 'x'), (13, 773, 'x')]"
sam,corsi_ext,simultaneous_b,0,8,7,"[(-259, 345), (-131, -74), (287, -245), (275, 79), (-200, 226), (-234, -285), (-291, 261), (90, 134), (186, -158), (-295, 145), (-174, 92), (-10, -309), (-349, -33), (-100, 293)]",xcxcxcc,0,0.0,4806,"[(0, 836, 'x'), (4, 292, 'x'), (2, 1054, 'x'), (3, 574, 'c'), (1, 368, 'c'), (5, 461, 'c'), (9, 426, 'c')]"
sam,corsi_ext,simultaneous_b,0,9,7,"[(269, 249), (165, -338), (-10, 22), (-336, 52), (-32, 108), (-237, 304), (220, -181), (335, -60), (80, 129), (257, 71), (-154, 234), (-335, -216), (156, -22), (-134, 91)]",ccxxxcx,1,0.142857142857,5174,"[(5, 1060, 'c'), (0, 531, 'c'), (1, 588, 'c'), (6, 613, 'x'), (2, 426, 'x'), (4, 330, 'x'), (3, 703, 'x')]"
sam,corsi_ext,simultaneous_b,0,0,8,"[(2, 238), (184, 305), (-115, -304), (-266, -293), (-341, -25), (137, 203), (258, 3), (65, 327), (-99, 333), (119, 92), (172, -112), (-256, 116), (45, -312), (-67, 91), (-240, 338), (-142, 210)]",xxccxxcc,0,0.0,5002,"[(3, 1292, 'c'), (2, 359, 'c'), (6, 621, 'c'), (7, 935, 'c'), (4, 786, 'x'), (13, 352, 'x')]"
sam,corsi_ext,simultaneous_b,0,1,8,"[(234, 229), (58, -328), (-103, -315), (-247, -195), (-246, 88), (225, 312), (335, -321), (-344, -290), (-117, 297), (-75, -166), (-188, 251), (-282, -47), (161, 5), (85, -202), (264, 25), (309, -121)]",cxcxxcxc,0,0.0,7361,"[(6, 819, 'x'), (1, 453, 'x'), (2, 381, 'c'), (3, 416, 'x'), (7, 1266, 'c'), (4, 959, 'x'), (0, 1413, 'c'), (5, 436, 'x')]"
sam,corsi_ext,simultaneous_b,0,2,8,"[(-349, -185), (-270, 189), (-176, -2), (-15, 112), (293, 219), (270, -242), (89, 278), (-348, 26), (201, 284), (93, 24), (-18, -126), (-311, 346), (26, -274), (-129, -267), (273, 47), (-160, -157)]",xcccxxcx,1,0.125,7042,"[(0, 1443, 'x'), (7, 579, 'x'), (2, 356, 'c'), (1, 725, 'c'), (3, 506, 'c'), (6, 864, 'c'), (4, 718, 'x'), (5, 792, 'x')]"
sam,corsi_ext,simultaneous_b,0,3,8,"[(257, 270), (93, -27), (-282, 320), (-136, -147), (50, -144), (-279, -226), (-122, 302), (279, -269), (198, -93), (-199, 340), (-117, 193), (-31, -73), (-120, 10), (341, -49), (219, 150), (-281, 192)]",xcccxxcx,0,0.0,3234,"[(7, 1084, 'x'), (4, 426, 'x'), (5, 422, 'x'), (3, 343, 'c'), (0, 427, 'c')]"
sam,corsi_ext,simultaneous_b,0,4,8,"[(89, 83), (62, -303), (335, -115), (-281, 192), (-249, -251), (321, 113), (-308, 91), (6, -190), (257, -131), (-124, 246), (225, -40), (-24, 222), (92, 341), (-188, 78), (-14, -65), (-307, 340)]",cxccxcxx,0,0.0,2113,"[(6, 827, 'x'), (4, 436, 'x'), (14, 584, 'x')]"
sam,corsi_ext,simultaneous_b,0,5,8,"[(340, -239), (-297, -192), (-286, 330), (40, -275), (-98, 261), (-280, 195), (126, -348), (-186, 298), (-197, 66), (328, -31), (-147, -201), (11, 256), (204, -295), (-45, -315), (160, 54), (-272, 30)]",xcxxxccc,0,0.0,6221,"[(0, 1854, 'x'), (3, 565, 'x'), (4, 730, 'x'), (2, 482, 'x'), (7, 356, 'c'), (1, 822, 'c'), (15, 624, 'c')]"
sam,corsi_ext,simultaneous_b,0,6,8,"[(127, -171), (198, -116), (-34, -298), (-160, -280), (-232, -73), (-181, -172), (-129, 135), (-306, 133), (-3, -94), (169, -287), (-226, -3), (-336, -160), (176, -1), (-62, -188), (-107, 291), (-208, 220)]",ccxxcxxc,1,0.125,4932,"[(7, 804, 'c'), (4, 371, 'c'), (0, 500, 'c'), (1, 248, 'c'), (6, 620, 'x'), (5, 446, 'x'), (3, 414, 'x'), (2, 458, 'x')]"
sam,corsi_ext,simultaneous_b,0,7,8,"[(211, -347), (300, 349), (284, -12), (-27, 134), (288, 210), (43, -274), (-56, -55), (-219, -16), (263, -155), (182, -235), (-56, 31), (-189, -270), (-53, -256), (123, 307), (-213, 135), (-255, 336)]",cxcxxcxc,0,0.0,4991,"[(1, 1463, 'x'), (4, 428, 'x'), (3, 432, 'x'), (6, 426, 'x'), (7, 555, 'c'), (2, 506, 'c'), (9, 388, 'c')]"
sam,corsi_ext,simultaneous_b,0,8,8,"[(17, -245), (113, 273), (-123, 340), (-226, 94), (-191, -338), (21, -81), (-146, 4), (-294, 206), (203, -132), (205, 103), (-284, -153), (246, -21), (-30, 150), (280, 96), (316, -100), (40, 344)]",xccxxcxc,0,0.0,7547,"[(4, 3234, 'x'), (0, 432, 'x'), (6, 590, 'x'), (3, 272, 'x'), (7, 676, 'c'), (5, 581, 'c'), (1, 622, 'c'), (15, 217, 'c')]"
sam,corsi_ext,simultaneous_b,0,9,8,"[(30, -1), (263, -132), (212, 193), (89, 130), (-72, 228), (288, -53), (-200, -344), (337, -219), (-13, -310), (-337, 165), (-188, 52), (187, 328), (224, -234), (328, 257), (-321, 69), (-194, -95)]",xxxccxcc,1,0.125,6445,"[(6, 938, 'c'), (4, 783, 'c'), (3, 470, 'c'), (7, 471, 'c'), (1, 499, 'x'), (5, 307, 'x'), (0, 368, 'x'), (2, 551, 'x')]"
sam,corsi_ext,simultaneous_b,0,0,9,"[(-208, -204), (197, 199), (107, -67), (213, 309), (-216, 198), (-314, -162), (236, -208), (-349, -330), (-72, -191), (309, -335), (-56, 204), (-89, 41), (-122, -341), (319, -227), (346, -21), (339, 96), (-314, 44), (-168, -131)]",xxcxcccxc,1,0.111111111111,6390,"[(7, 988, 'x'), (0, 412, 'x'), (3, 927, 'x'), (1, 333, 'x'), (4, 644, 'c'), (5, 425, 'c'), (8, 401, 'c'), (2, 539, 'c'), (6, 529, 'c')]"
sam,corsi_ext,simultaneous_b,0,1,9,"[(189, 284), (319, 207), (69, 304), (313, -102), (-109, 344), (-135, 73), (14, 87), (-310, 51), (152, -173), (341, 300), (191, -40), (103, 140), (-329, -319), (-334, 283), (82, 226), (120, -60), (333, -242), (-34, -167)]",cxxxcccxc,0,0.0,5727,"[(4, 933, 'c'), (0, 585, 'c'), (6, 589, 'c'), (5, 329, 'c'), (8, 473, 'c'), (7, 666, 'x'), (2, 669, 'x'), (14, 552, 'x')]"
sam,corsi_ext,simultaneous_b,0,2,9,"[(175, 324), (329, -59), (274, -137), (135, -150), (162, 218), (-301, -167), (-140, -203), (121, -288), (33, -5), (-311, 111), (-48, 292), (-349, 327), (-192, -4), (-161, 337), (-172, 74), (-321, 243), (-11, -81), (-306, -26)]",xxcxcxccx,0,0.0,5725,"[(5, 1496, 'x'), (8, 519, 'x'), (3, 577, 'x'), (1, 373, 'x'), (0, 785, 'x'), (6, 909, 'c'), (16, 265, 'c')]"
sam,corsi_ext,simultaneous_b,0,3,9,"[(312, 301), (300, -36), (153, 153), (-289, -230), (-140, -10), (-25, 269), (-241, 253), (69, 226), (229, 82), (92, 323), (36, -35), (-68, 15), (105, -252), (40, 50), (-33, -299), (325, -256), (-147, 303), (-336, 336)]",xcxccxcxc,0,0.0,5701,"[(3, 1009, 'c'), (4, 471, 'c'), (6, 656, 'c'), (8, 689, 'c'), (1, 383, 'c'), (2, 750, 'x'), (0, 386, 'x'), (11, 426, 'x')]"
sam,corsi_ext,simultaneous_b,0,4,9,"[(144, 8), (-324, -150), (12, 222), (-117, 117), (-212, 145), (264, -95), (-309, 141), (154, -76), (-57, 31), (115, -269), (294, 30), (-68, -62), (306, -201), (134, 197), (229, 305), (276, 230), (-53, -156), (110, 276)]",cccxcxxxx,0,0.0,5583,"[(6, 1136, 'x'), (3, 466, 'x'), (8, 322, 'x'), (7, 357, 'x'), (5, 488, 'x'), (0, 454, 'c'), (1, 379, 'c'), (2, 475, 'c'), (17, 446, 'c')]"
sam,corsi_ext,simultaneous_b,0,5,9,"[(-145, -140), (123, 63), (277, -282), (-121, 8), (318, 27), (-262, 295), (-242, 1), (-211, 182), (233, 45), (199, -37), (266, -128), (-249, -301), (236, 263), (258, -201), (87, -194), (-14, 209), (52, 54), (37, -36)]",cxxcxcxcc,0,0.0,3572,"[(5, 1155, 'c'), (7, 283, 'c'), (3, 298, 'c'), (0, 306, 'c'), (6, 333, 'x'), (1, 532, 'c')]"
sam,corsi_ext,simultaneous_b,0,6,9,"[(300, -256), (-121, -131), (-98, 141), (92, 71), (293, 30), (211, -233), (-152, 247), (47, -220), (-188, 72), (-160, -296), (-326, -46), (336, 197), (309, -116), (-205, -201), (-313, 167), (-52, -209), (-204, -13), (-106, -55)]",xcxcxxccc,0,0.0,3992,"[(0, 968, 'x'), (5, 299, 'x'), (7, 304, 'c'), (4, 624, 'x'), (3, 467, 'c'), (17, 661, 'c')]"
sam,corsi_ext,simultaneous_b,0,7,9,"[(295, 114), (234, -273), (241, -131), (-118, 250), (110, -126), (-55, 83), (137, -51), (-147, -88), (-232, 142), (-254, 215), (-32, 221), (-133, -259), (247, -26), (-46, -73), (-290, -298), (-258, -160), (176, 133), (45, 1)]",xcccxxxcc,0,0.0,3985,"[(3, 1455, 'c'), (8, 346, 'c'), (7, 447, 'c'), (1, 552, 'c'), (2, 217, 'c'), (4, 308, 'c')]"
sam,corsi_ext,simultaneous_b,0,8,9,"[(341, -66), (3, -339), (163, -112), (-304, 41), (-172, 209), (-209, -222), (120, 40), (348, 342), (262, -259), (-283, 190), (-82, -66), (-67, -330), (41, -258), (-89, -139), (335, -194), (-175, -130), (53, 113), (-169, 331)]",xxccxccxc,1,0.111111111111,6186,"[(3, 1063, 'c'), (5, 466, 'c'), (6, 497, 'c'), (2, 298, 'c'), (8, 519, 'c'), (1, 398, 'x'), (0, 622, 'x'), (7, 553, 'x'), (4, 574, 'x')]"
sam,corsi_ext,simultaneous_b,0,9,9,"[(-317, -223), (347, -334), (244, 216), (190, -180), (126, -40), (-80, -258), (-59, 248), (-303, -134), (12, -150), (319, 271), (-135, 31), (-139, 264), (-10, 339), (82, 298), (-102, -330), (199, -17), (-310, -341), (-174, -58)]",cxxcxccxc,0,0.0,5855,"[(7, 898, 'x'), (0, 301, 'c'), (5, 356, 'c'), (8, 259, 'c'), (3, 373, 'c'), (1, 629, 'x'), (4, 590, 'x'), (2, 662, 'x'), (6, 735, 'x')]"
sam,corsi_ext,forward_b,0,0,2,"[(308, 138), (-38, 339), (-194, -72), (-64, -306)]",cc,1,0.5,2200,"[(0, 987, 'c'), (1, 948, 'c')]"
sam,corsi_ext,forward_b,0,1,2,"[(-230, 238), (39, 95), (290, -134), (296, 11)]",cc,1,0.5,2147,"[(0, 1284, 'c'), (1, 599, 'c')]"
sam,corsi_ext,forward_b,0,2,2,"[(120, -35), (-256, -328), (-221, 43), (-188, -184)]",cc,1,0.5,2289,"[(0, 1323, 'c'), (1, 705, 'c')]"
sam,corsi_ext,forward_b,0,3,2,"[(-35, 244), (-32, -52), (-292, -97), (-314, 69)]",cc,1,0.5,2757,"[(0, 1061, 'c'), (1, 804, 'c')]"
sam,corsi_ext,forward_b,0,4,2,"[(203, -154), (-329, 12), (311, 131), (48, 34)]",cc,1,0.5,1499,"[(0, 833, 'c'), (1, 403, 'c')]"
sam,corsi_ext,forward_b,0,5,2,"[(-279, -63), (321, 157), (233, 332), (-49, 300)]",cc,1,0.5,1646,"[(0, 874, 'c'), (1, 508, 'c')]"
sam,corsi_ext,forward_b,0,6,2,"[(254, 189), (110, -235), (-121, 273), (256, -215)]",cc,1,0.5,1990,"[(0, 1100, 'c'), (1, 625, 'c')]"
sam,corsi_ext,forward_b,0,7,2,"[(-146, 125), (-60, -197), (-169, -315), (299, 94)]",cc,1,0.5,1419,"[(0, 780, 'c'), (1, 375, 'c')]"
sam,corsi_ext,forward_b,0,8,2,"[(-345, -143), (35, -311), (-65, -44), (170, -118)]",cc,1,0.5,1990,"[(0, 985, 'c'), (1, 737, 'c')]"
sam,corsi_ext,forward_b,0,9,2,"[(57, 245), (174, 321), (348, 154), (-74, -2)]",cc,1,0.5,1336,"[(0, 811, 'c'), (1, 261, 'c')]"
sam,corsi_ext,forward_b,0,0,3,"[(-226, 156), (152, -187), (-77, -335), (89, 253), (-319, 11), (71, -38)]",ccc,1,0.333333333333,2342,"[(0, 1049, 'c'), (1, 542, 'c'), (2, 353, 'c')]"
sam,corsi_ext,forward_b,0,1,3,"[(77, 259), (177, 115), (-179, -110), (-308, -279), (344, -215), (-208, 9)]",ccc,1,0.333333333333,2165,"[(0, 916, 'c'), (1, 284, 'c'), (2, 574, 'c')]"
sam,corsi_ext,forward_b,0,2,3,"[(54, -43), (6, 324), (220, -95), (-102, -115), (-24, -324), (-117, 220)]",ccc,1,0.333333333333,2418,"[(0, 906, 'c'), (1, 581, 'c'), (2, 543, 'c')]"
sam,corsi_ext,forward_b,0,3,3,"[(-321, -343), (226, 251), (145, 260), (-97, -30), (-322, -226), (32, -239)]",ccc,1,0.333333333333,2153,"[(0, 637, 'c'), (1, 890, 'c'), (2, 230, 'c')]"
sam,corsi_ext,forward_b,0,4,3,"[(311, 17), (-28, -221), (-48, 166), (133, -84), (318, -147), (255, 209)]",ccc,1,0.333333333333,2088,"[(0, 734, 'c'), (1, 458, 'c'), (2, 496, 'c')]"
sam,corsi_ext,forward_b,0,5,3,"[(137, 279), (-109, -51), (167, -323), (-313, -348), (-271, -74), (209, 248)]",ccc,1,0.333333333333,2680,"[(0, 1095, 'c'), (1, 474, 'c'), (2, 715, 'c')]"
sam,corsi_ext,forward_b,0,6,3,"[(-101, -156), (146, 342), (108, -199), (-178, -134), (319, 50), (8, 167)]",ccc,1,0.333333333333,2600,"[(0, 1143, 'c'), (1, 601, 'c'), (2, 462, 'c')]"
sam,corsi_ext,forward_b,0,7,3,"[(-82, -164), (231, 323), (256, -205), (-302, -254), (338, -335), (-311, 246)]",ccc,1,0.333333333333,3022,"[(0, 1393, 'c'), (1, 633, 'c'), (2, 599, 'c')]"
sam,corsi_ext,forward_b,0,8,3,"[(313, -149), (-135, 260), (274, -252), (319, 238), (-20, -273), (-173, 82)]",ccc,1,0.333333333333,2880,"[(0, 785, 'c'), (1, 635, 'c'), (2, 1064, 'c')]"
sam,corsi_ext,forward_b,0,9,3,"[(73, -119), (73, -216), (-200, 292), (229, -340), (-289, 332), (32, 164)]",ccc,1,0.333333333333,2310,"[(0, 971, 'c'), (1, 251, 'c'), (2, 692, 'c')]"
sam,corsi_ext,forward_b,0,0,4,"[(-222, -287), (-82, -46), (-328, 319), (-177, -25), (-91, -223), (53, -202), (305, -235), (282, -61)]",cccc,1,0.25,3217,"[(0, 795, 'c'), (1, 401, 'c'), (2, 959, 'c'), (3, 538, 'c')]"
sam,corsi_ext,forward_b,0,1,4,"[(-310, -84), (221, 278), (140, -290), (253, 187), (192, -84), (-32, -51), (349, -234), (221, -260)]",cccc,1,0.25,2730,"[(0, 601, 'c'), (1, 614, 'c'), (2, 469, 'c'), (3, 518, 'c')]"
sam,corsi_ext,forward_b,0,2,4,"[(183, 254), (39, 166), (-117, 12), (-12, -240), (-293, 305), (122, 74), (-194, -203), (127, 168)]",cccc,1,0.25,3047,"[(0, 1136, 'c'), (1, 414, 'c'), (2, 436, 'c'), (3, 528, 'c')]"
sam,corsi_ext,forward_b,0,3,4,"[(263, -190), (-15, -304), (-171, 168), (-102, 309), (235, 15), (21, -143), (123, 185), (152, 52)]",cccc,1,0.25,2924,"[(0, 785, 'c'), (1, 461, 'c'), (2, 588, 'c'), (3, 565, 'c')]"
sam,corsi_ext,forward_b,0,4,4,"[(274, 89), (252, -122), (-178, -186), (-334, -346), (109, -233), (-85, 250), (68, -3), (-3, -163)]",cccc,1,0.25,2556,"[(0, 637, 'c'), (1, 287, 'c'), (2, 601, 'c'), (3, 502, 'c')]"
sam,corsi_ext,forward_b,0,5,4,"[(-99, 324), (-10, 182), (-28, -66), (276, -78), (245, -258), (278, 188), (29, 267), (235, 25)]",cccc,1,0.25,3277,"[(0, 937, 'c'), (1, 436, 'c'), (2, 614, 'c'), (3, 764, 'c')]"
sam,corsi_ext,forward_b,0,6,4,"[(26, -301), (-107, 100), (-339, 171), (233, -246), (-231, 24), (26, 116), (-62, 254), (-201, -267)]",cccc,1,0.25,4256,"[(0, 1778, 'c'), (1, 731, 'c'), (2, 368, 'c'), (3, 857, 'c')]"
sam,corsi_ext,forward_b,0,7,4,"[(-60, -79), (-149, 337), (190, 164), (-72, -338), (-100, -242), (-255, -216), (126, -292), (-296, 115)]",cccc,1,0.25,3250,"[(0, 540, 'c'), (1, 600, 'c'), (2, 762, 'c'), (3, 821, 'c')]"
sam,corsi_ext,forward_b,0,8,4,"[(-201, -34), (330, -38), (319, 134), (348, 288), (195, 261), (-155, -218), (-139, 320), (112, -292)]",cccc,1,0.25,2390,"[(0, 763, 'c'), (1, 493, 'c'), (2, 331, 'c'), (3, 275, 'c')]"
sam,corsi_ext,forward_b,0,9,4,"[(-245, -156), (-62, 262), (344, 41), (-80, -156), (-206, -323), (-336, 220), (36, 116), (50, -205)]",cccc,1,0.25,2679,"[(0, 601, 'c'), (1, 456, 'c'), (2, 494, 'c'), (3, 597, 'c')]"
sam,corsi_ext,forward_b,0,0,5,"[(38, -176), (-252, 13), (-50, -97), (195, -186), (206, 241), (115, 317), (273, 108), (-156, 246), (-233, -264), (312, -119)]",ccccc,1,0.2,3333,"[(0, 716, 'c'), (1, 585, 'c'), (2, 356, 'c'), (3, 368, 'c'), (4, 651, 'c')]"
sam,corsi_ext,forward_b,0,1,5,"[(-156, -133), (152, -147), (253, -246), (-222, 97), (-111, 97), (282, 287), (-67, 8), (228, -336), (-10, -172), (344, -308)]",ccccc,1,0.2,2645,"[(0, 541, 'c'), (1, 356, 'c'), (2, 406, 'c'), (3, 548, 'c'), (4, 125, 'c')]"
sam,corsi_ext,forward_b,0,2,5,"[(-237, -138), (-231, 205), (-344, 197), (-137, -7), (-5, 160), (-28, 6), (-305, -318), (210, 330), (294, -262), (-236, 131)]",ccccc,1,0.2,3019,"[(0, 670, 'c'), (1, 551, 'c'), (2, 343, 'c'), (3, 425, 'c'), (4, 367, 'c')]"
sam,corsi_ext,forward_b,0,3,5,"[(261, -229), (181, 141), (113, -214), (137, 287), (-36, 104), (177, -121), (-116, -45), (313, 319), (-59, -337), (-183, 122)]",ccccc,1,0.2,4029,"[(0, 937, 'c'), (1, 947, 'c'), (2, 390, 'c'), (3, 658, 'c'), (4, 439, 'c')]"
sam,corsi_ext,forward_b,0,4,5,"[(-145, 331), (-258, -349), (-54, 276), (-343, -178), (-281, 234), (-232, 337), (-287, 135), (-91, 186), (282, 3), (334, -242)]",ccccc,0,0.0,1222,"[(1, 1221, 'c')]"
sam,corsi_ext,forward_b,0,5,5,"[(103, 108), (209, -251), (258, -49), (94, -3), (-317, 260), (299, 84), (-271, 176), (225, 205), (-11, -107), (112, -245)]",ccccc,0,0.0,1105,"[(1, 1105, 'c')]"
sam,corsi_ext,forward_b,0,6,5,"[(167, 187), (-198, -302), (321, 103), (-220, 274), (228, 105), (77, 240), (305, 222), (312, -58), (65, 108), (-99, -215)]",ccccc,0,0.0,2855,"[(0, 718, 'c'), (1, 441, 'c'), (3, 750, 'c')]"
sam,corsi_ext,forward_b,0,7,5,"[(68, 121), (268, -83), (254, 305), (-9, 45), (171, 14), (171, -146), (-348, 250), (-15, -323), (-241, 151), (349, 243)]",ccccc,1,0.2,3493,"[(0, 1050, 'c'), (1, 419, 'c'), (2, 523, 'c'), (3, 495, 'c'), (4, 346, 'c')]"
sam,corsi_ext,forward_b,0,8,5,"[(-309, -20), (-128, 81), (-130, -1), (183, -218), (236, 46), (7, -185), (32, -12), (-216, -150), (-244, 122), (284, 320)]",ccccc,1,0.2,3273,"[(0, 828, 'c'), (1, 414, 'c'), (2, 268, 'c'), (3, 534, 'c'), (4, 576, 'c')]"
sam,corsi_ext,forward_b,0,9,5,"[(-270, -331), (147, 316), (290, 288), (-110, 155), (-30, -252), (51, -247), (-264, 315), (295, 74), (137, 237), (334, -198)]",ccccc,1,0.2,3986,"[(0, 861, 'c'), (1, 644, 'c'), (2, 376, 'c'), (3, 827, 'c'), (4, 619, 'c')]"
sam,corsi_ext,forward_b,0,0,6,"[(188, 21), (130, -322), (-196, -302), (-274, 25), (-163, -29), (202, -226), (43, 77), (-126, -298), (0, 158), (16, 294), (339, 128), (261, -306)]",cccccc,0,0.0,776,"[(1, 776, 'c')]"
sam,corsi_ext,forward_b,0,1,6,"[(74, -91), (-129, -302), (244, 296), (-30, -79), (18, -289), (-159, 12), (-290, -279), (25, 37), (266, 197), (108, 234), (-208, 291), (177, 137)]",cccccc,0,0.0,2996,"[(0, 1476, 'c'), (1, 730, 'c'), (3, 531, 'c')]"
sam,corsi_ext,forward_b,0,2,6,"[(-50, -27), (-260, 202), (158, -52), (143, -319), (-69, -115), (50, 284), (-141, -51), (312, -159), (-128, -238), (8, 158), (173, -230), (-128, 237)]",cccccc,1,0.166666666667,4417,"[(0, 474, 'c'), (1, 518, 'c'), (2, 492, 'c'), (3, 716, 'c'), (4, 426, 'c'), (5, 996, 'c')]"
sam,corsi_ext,forward_b,0,3,6,"[(271, 316), (-255, -304), (-332, 218), (256, -158), (144, 119), (127, 314), (5, -216), (-227, 116), (-133, -19), (12, 280), (-59, -76), (-96, -270)]",cccccc,0,0.0,9303,"[(0, 1603, 'c'), (1, 857, 'c'), (2, 1099, 'c'), (3, 469, 'c'), (4, 801, 'c'), (9, 2437, 'c')]"
sam,corsi_ext,forward_b,0,4,6,"[(299, -348), (124, 198), (-148, -9), (-89, 253), (-117, -339), (-171, 117), (261, -232), (-134, -128), (-242, 12), (-72, 337), (72, -26), (-4, 232)]",cccccc,0,0.0,5155,"[(0, 2519, 'c'), (1, 791, 'c'), (5, 491, 'c')]"
sam,corsi_ext,forward_b,0,5,6,"[(-9, -168), (143, -330), (-79, -57), (248, -336), (72, -133), (238, 244), (-224, 105), (230, 140), (-156, -246), (81, -230), (-287, 252), (339, 114)]",cccccc,0,0.0,2923,"[(0, 798, 'c'), (1, 600, 'c'), (2, 775, 'c'), (4, 355, 'c')]"
sam,corsi_ext,forward_b,0,6,6,"[(70, 94), (270, 210), (-118, 260), (144, -155), (-16, 124), (111, 274), (144, 57), (-198, -60), (342, -289), (-307, -169), (55, -224), (244, -150)]",cccccc,0,0.0,3607,"[(0, 682, 'c'), (1, 540, 'c'), (2, 469, 'c'), (3, 636, 'c'), (5, 761, 'c')]"
sam,corsi_ext,forward_b,0,7,6,"[(39, -149), (-32, -348), (-300, 344), (-307, -75), (284, 347), (163, -193), (236, 48), (-247, 123), (155, 87), (44, -323), (1, 172), (-20, 53)]",cccccc,1,0.166666666667,6130,"[(0, 572, 'c'), (1, 1105, 'c'), (2, 680, 'c'), (3, 743, 'c'), (4, 775, 'c'), (5, 826, 'c')]"
sam,corsi_ext,forward_b,0,8,6,"[(-272, -273), (96, -314), (-264, -183), (308, 334), (69, 0), (80, 75), (-140, 288), (267, 210), (-233, 102), (284, -64), (213, 316), (139, 151)]",cccccc,1,0.166666666667,5967,"[(0, 1055, 'c'), (1, 757, 'c'), (2, 790, 'c'), (3, 784, 'c'), (4, 1170, 'c'), (5, 630, 'c')]"
sam,corsi_ext,forward_b,0,9,6,"[(-49, 206), (-164, -124), (133, 303), (348, -246), (-36, 293), (177, 223), (-243, -108), (274, -135), (155, 14), (-125, 59), (-150, 323), (134, -342)]",cccccc,0,0.0,4819,"[(0, 1154, 'c'), (1, 696, 'c'), (2, 722, 'c'), (3, 719, 'c'), (10, 1012, 'c')]"
sam,corsi_ext,forward_b,0,0,7,"[(31, -3), (233, -295), (308, 16), (304, -325), (-312, 66), (-307, -281), (-347, -173), (-138, 319), (2, -308), (-315, 171), (306, -195), (152, 47), (282, 161), (-232, 205)]",ccccccc,0,0.0,6513,"[(0, 678, 'c'), (1, 418, 'c'), (2, 1046, 'c'), (3, 668, 'c'), (9, 2688, 'c')]"
sam,corsi_ext,forward_b,0,1,7,"[(5, -106), (267, 78), (220, -86), (-83, 348), (-283, 255), (-340, -274), (310, -282), (253, 8), (-349, 34), (40, 19), (-178, -71), (-126, 254), (-137, -182), (-256, -149)]",ccccccc,0,0.0,1176,"[(0, 715, 'c'), (2, 326, 'c')]"
sam,corsi_ext,forward_b,0,2,7,"[(-149, -91), (215, 19), (-14, -132), (-27, 86), (-161, 23), (253, -244), (-329, -7), (-152, -273), (346, -41), (-236, 279), (-266, 155), (-319, 246), (-182, 132), (226, -323)]",ccccccc,0,0.0,4459,"[(0, 1175, 'c'), (1, 573, 'c'), (2, 643, 'c'), (3, 690, 'c'), (5, 859, 'c')]"
sam,corsi_ext,forward_b,0,3,7,"[(-350, 194), (-337, -177), (-138, -227), (19, 137), (-65, -252), (-12, 53), (346, 332), (295, 143), (-197, 217), (142, -215), (-241, 304), (162, 290), (146, -288), (-170, 82)]",ccccccc,0,0.0,2216,"[(0, 840, 'c'), (1, 394, 'c'), (3, 719, 'c')]"
sam,corsi_ext,forward_b,0,4,7,"[(304, 100), (-208, 245), (-337, -314), (286, -260), (-273, 153), (-65, -350), (-106, 253), (-91, 82), (-347, -3), (319, 262), (116, 131), (-142, -73), (202, -303), (33, 186)]",ccccccc,0,0.0,1566,"[(0, 840, 'c'), (7, 595, 'c')]"
sam,corsi_ext,forward_b,0,5,7,"[(53, -314), (234, -135), (-223, -189), (-349, -101), (-61, 41), (-52, -338), (310, -258), (-89, 331), (322, 174), (-4, -29), (-217, -301), (69, 187), (87, -35), (258, 34)]",ccccccc,0,0.0,5054,"[(0, 1192, 'c'), (1, 450, 'c'), (2, 518, 'c'), (3, 441, 'c'), (4, 484, 'c'), (5, 586, 'c'), (12, 597, 'c')]"
sam,corsi_ext,forward_b,0,6,7,"[(-196, -219), (-106, 112), (-92, -69), (85, -326), (-85, 207), (-5, -51), (-244, -111), (134, -40), (-37, -192), (-289, 106), (-347, -200), (263, 6), (27, 168), (194, 153)]",ccccccc,0,0.0,4980,"[(0, 894, 'c'), (1, 590, 'c'), (2, 459, 'c'), (3, 798, 'c'), (5, 1715, 'c')]"
sam,corsi_ext,forward_b,0,7,7,"[(-200, 36), (-269, -63), (-65, -162), (-222, 111), (-96, 160), (29, 85), (-325, 238), (-135, 286), (-329, -268), (-187, -339), (107, 32), (-155, -61), (37, -347), (-304, 154)]",ccccccc,0,0.0,3973,"[(0, 1306, 'c'), (1, 355, 'c'), (2, 634, 'c'), (3, 534, 'c'), (5, 625, 'c')]"
sam,corsi_ext,forward_b,0,8,7,"[(-180, -344), (-135, -41), (-336, -207), (53, -42), (-65, -257), (282, 304), (314, 128), (-173, 226), (241, -196), (108, 264), (-241, -9), (201, 176), (293, 209), (7, -285)]",ccccccc,0,0.0,2569,"[(0, 881, 'c'), (1, 430, 'c'), (2, 493, 'c'), (4, 370, 'c')]"
sam,corsi_ext,forward_b,0,9,7,"[(26, -280), (-17, 50), (-232, 216), (-196, -263), (245, -167), (118, 90), (247, 147), (-268, -217), (-300, -82), (-140, -350), (337, -128), (64, 294), (155, -11), (28, 176)]",ccccccc,0,0.0,3596,"[(0, 748, 'c'), (1, 498, 'c'), (2, 631, 'c'), (3, 519, 'c'), (5, 679, 'c')]"
sam,corsi_ext,forward_b,0,0,8,"[(322, 251), (-211, 256), (135, -221), (41, 61), (319, -93), (-198, -303), (132, -25), (19, -298), (183, -148), (-313, -218), (204, -36), (-66, 97), (-290, -302), (212, 102), (-183, 34), (29, -19)]",cccccccc,0,0.0,1890,"[(0, 1071, 'c'), (3, 689, 'c')]"
sam,corsi_ext,forward_b,0,1,8,"[(-124, 278), (300, -259), (-227, -28), (-218, 53), (137, 322), (-201, 286), (-315, 78), (-57, 179), (-117, -220), (68, -216), (-6, -207), (46, 162), (-252, -243), (273, -137), (239, -348), (-19, 270)]",cccccccc,0,0.0,5016,"[(0, 645, 'c'), (1, 906, 'c'), (2, 753, 'c'), (4, 2321, 'c')]"
sam,corsi_ext,forward_b,0,2,8,"[(-215, -112), (8, 274), (271, -227), (-45, -115), (-140, -227), (-91, 197), (304, -53), (170, -86), (248, -302), (-265, 200), (339, 177), (-260, -13), (7, 137), (-122, -304), (90, 244), (-188, -8)]",cccccccc,0,0.0,4117,"[(0, 730, 'c'), (1, 729, 'c'), (2, 794, 'c'), (5, 752, 'c')]"
sam,corsi_ext,forward_b,0,3,8,"[(-185, -178), (-159, 298), (-151, 1), (337, 30), (-10, 72), (-64, 337), (310, -312), (-255, 19), (-335, 143), (131, -325), (-210, 210), (220, 27), (212, -289), (219, 100), (106, -62), (-298, -125)]",cccccccc,1,0.125,6321,"[(0, 897, 'c'), (1, 836, 'c'), (2, 680, 'c'), (3, 476, 'c'), (4, 589, 'c'), (5, 603, 'c'), (6, 584, 'c'), (7, 611, 'c')]"
sam,corsi_ext,forward_b,0,4,8,"[(204, -332), (279, -50), (-237, -251), (-129, -211), (-345, 217), (-175, -91), (310, -148), (326, -317), (119, -263), (318, -233), (299, 184), (167, 131), (-256, 123), (-342, -96), (140, 14), (-248, -129)]",cccccccc,0,0.0,4286,"[(0, 971, 'c'), (1, 452, 'c'), (2, 542, 'c'), (3, 218, 'c'), (4, 834, 'c'), (8, 615, 'c')]"
sam,corsi_ext,forward_b,0,5,8,"[(-87, -272), (-155, 302), (283, 268), (96, -54), (192, 21), (338, 70), (-6, 32), (-95, 108), (41, 264), (274, -322), (164, 173), (4, -115), (34, 348), (-340, -7), (-172, -112), (183, 301)]",cccccccc,0,0.0,5976,"[(0, 941, 'c'), (1, 903, 'c'), (2, 571, 'c'), (3, 358, 'c'), (4, 260, 'c'), (5, 794, 'c'), (7, 546, 'c')]"
sam,corsi_ext,forward_b,0,6,8,"[(58, 103), (-310, -177), (-130, -111), (-45, -49), (-317, 305), (-291, 75), (92, -36), (192, -95), (75, 316), (-62, 179), (17, -147), (319, 222), (194, 301), (308, -276), (104, -126), (-140, 301)]",cccccccc,0,0.0,3740,"[(0, 1372, 'c'), (1, 881, 'c'), (5, 572, 'c')]"
sam,corsi_ext,forward_b,0,7,8,"[(-277, 266), (-40, -92), (325, 12), (-181, -249), (125, -10), (309, -298), (69, 118), (-155, 30), (-2, 92), (-229, 62), (287, 180), (151, -175), (-336, 124), (192, 287), (-310, -238), (0, -255)]",cccccccc,0,0.0,4130,"[(0, 502, 'c'), (1, 825, 'c'), (3, 714, 'c')]"
sam,corsi_ext,forward_b,0,8,8,"[(215, -59), (-19, -71), (226, -202), (313, -160), (310, 293), (-334, 298), (-108, -349), (202, 65), (231, 236), (-24, 158), (79, -344), (86, -133), (338, 125), (7, 34), (-173, -158), (332, 24)]",cccccccc,0,0.0,4431,"[(0, 1483, 'c'), (1, 441, 'c'), (2, 434, 'c'), (3, 271, 'c'), (4, 443, 'c'), (6, 711, 'c')]"
sam,corsi_ext,forward_b,0,9,8,"[(-15, -4), (-21, 127), (-16, -150), (-103, 247), (99, 319), (105, -95), (327, 252), (312, -291), (128, -10), (-208, -181), (232, 91), (-135, -311), (277, -73), (-130, -3), (273, 166), (114, 84)]",cccccccc,0,0.0,894,"[(0, 485, 'c'), (2, 279, 'c')]"
sam,corsi_ext,forward_b,0,0,9,"[(320, -184), (-341, -220), (-279, -59), (-191, -134), (-148, 249), (-26, 160), (325, -340), (-129, 329), (-57, -119), (-342, 75), (62, 254), (-21, -252), (173, -73), (-188, -284), (-265, 151), (22, 75), (86, -91), (289, 113)]",ccccccccc,0,0.0,5790,"[(0, 1304, 'c'), (1, 894, 'c'), (2, 632, 'c'), (3, 503, 'c'), (15, 1938, 'c')]"
sam,corsi_ext,forward_b,0,1,9,"[(348, -73), (-88, -303), (262, -219), (309, 40), (84, 29), (-313, 238), (-177, -299), (171, -43), (-312, 335), (-183, -161), (-4, 110), (65, -284), (-28, 344), (-26, -227), (78, 253), (337, 278), (-226, -79), (-340, -302)]",ccccccccc,0,0.0,2033,"[(13, 2032, 'c')]"
sam,corsi_ext,forward_b,0,2,9,"[(209, 218), (3, -310), (-320, 340), (-276, -108), (-314, 70), (-348, 202), (252, 60), (248, -320), (215, 318), (-91, -77), (344, 113), (63, 144), (-21, -165), (173, 16), (-200, 96), (-96, -307), (-260, -26), (-278, 230)]",ccccccccc,0,0.0,4729,"[(0, 1833, 'c'), (1, 787, 'c'), (2, 1137, 'c'), (17, 582, 'c')]"
sam,corsi_ext,forward_b,0,3,9,"[(300, 163), (-42, 9), (-109, 180), (43, 256), (-176, -347), (206, 112), (314, -268), (324, -11), (155, 215), (-221, 253), (154, -96), (72, -30), (96, 71), (-194, 23), (-313, -51), (-235, -153), (-60, -110), (-49, -335)]",ccccccccc,0,0.0,4510,"[(0, 1167, 'c'), (1, 525, 'c'), (2, 986, 'c'), (3, 665, 'c'), (10, 646, 'c')]"
sam,corsi_ext,forward_b,0,4,9,"[(308, -160), (173, -44), (-60, -16), (181, 32), (-336, -18), (323, -323), (61, -239), (-10, 138), (324, -77), (-46, 229), (-334, -270), (-350, 101), (-78, -108), (-115, 80), (279, -5), (99, -49), (100, 201), (-28, 329)]",ccccccccc,0,0.0,1998,"[(8, 1998, 'c')]"
sam,corsi_ext,forward_b,0,5,9,"[(-4, -202), (-149, 262), (102, -234), (182, -42), (91, 196), (-187, 62), (-157, -37), (-127, -303), (296, -41), (-77, 103), (94, -142), (59, -337), (-248, -258), (200, -309), (310, -144), (272, 81), (288, 293), (-252, 186)]",ccccccccc,0,0.0,4660,"[(0, 1160, 'c'), (1, 607, 'c'), (2, 614, 'c'), (3, 509, 'c'), (4, 537, 'c'), (6, 580, 'c')]"
sam,corsi_ext,forward_b,0,6,9,"[(-69, -209), (155, 214), (106, 341), (-40, -329), (58, 58), (135, 72), (-322, -339), (324, 98), (-248, 245), (-335, -31), (235, -55), (-76, 233), (348, -58), (-20, 140), (209, -264), (-156, -11), (-274, 64), (-207, -271)]",ccccccccc,0,0.0,2293,"[(0, 1729, 'c'), (3, 432, 'c')]"
sam,corsi_ext,forward_b,0,7,9,"[(-9, 88), (-346, -324), (-147, -257), (-58, 258), (-236, 124), (210, 165), (-236, -230), (307, -15), (86, -321), (52, 305), (276, -136), (17, -126), (48, 220), (-340, -20), (286, 289), (246, 60), (333, -248), (-143, 217)]",ccccccccc,0,0.0,4428,"[(0, 1599, 'c'), (1, 878, 'c'), (2, 591, 'c'), (4, 970, 'c')]"
sam,corsi_ext,forward_b,0,8,9,"[(-117, -148), (-252, -337), (-348, -182), (-314, 294), (225, 251), (319, 347), (-152, -271), (26, 170), (152, -348), (345, 261), (73, 274), (-275, -40), (-55, 145), (77, -9), (-211, 89), (20, -249), (-191, -80), (135, -222)]",ccccccccc,0,0.0,4970,"[(0, 1574, 'c'), (1, 508, 'c'), (2, 341, 'c'), (3, 548, 'c'), (10, 1480, 'c')]"
sam,corsi_ext,forward_b,0,9,9,"[(-228, 98), (275, -88), (-105, 2), (24, 111), (348, 198), (-326, -132), (269, 207), (197, 198), (-180, -116), (19, -89), (-177, -284), (-32, 38), (-116, 112), (308, -212), (-108, 250), (-6, 233), (-209, 331), (314, 117)]",ccccccccc,0,0.0,2438,"[(0, 1796, 'c'), (11, 509, 'c')]"
sam,corsi_ext,reverse_b,0,0,2,"[(-275, 234), (295, -291), (-209, -75), (-311, 152)]",cc,1,0.5,2135,"[(1, 1263, 'c'), (0, 613, 'c')]"
sam,corsi_ext,reverse_b,0,1,2,"[(106, -333), (-152, 24), (-196, -243), (144, 256)]",cc,0,0.0,905,"[(0, 904, 'c')]"
sam,corsi_ext,reverse_b,0,2,2,"[(-335, -288), (49, 108), (153, 123), (-262, 95)]",cc,1,0.5,1715,"[(1, 745, 'c'), (0, 709, 'c')]"
sam,corsi_ext,reverse_b,0,3,2,"[(-275, -243), (192, -208), (-81, -350), (62, -181)]",cc,1,0.5,1636,"[(1, 750, 'c'), (0, 625, 'c')]"
sam,corsi_ext,reverse_b,0,4,2,"[(-348, -229), (-192, -222), (-308, 177), (-319, -343)]",cc,1,0.5,1340,"[(1, 833, 'c'), (0, 247, 'c')]"
sam,corsi_ext,reverse_b,0,5,2,"[(214, -278), (280, 320), (292, 30), (8, 61)]",cc,1,0.5,2564,"[(1, 1745, 'c'), (0, 559, 'c')]"
sam,corsi_ext,reverse_b,0,6,2,"[(126, -119), (349, -295), (-349, 52), (271, -238)]",cc,1,0.5,1514,"[(1, 992, 'c'), (0, 262, 'c')]"
sam,corsi_ext,reverse_b,0,7,2,"[(26, -311), (-102, -273), (321, 185), (300, -114)]",cc,1,0.5,2761,"[(1, 1882, 'c'), (0, 425, 'c')]"
sam,corsi_ext,reverse_b,0,8,2,"[(190, -61), (48, 67), (-137, 10), (-316, 23)]",cc,1,0.5,1315,"[(1, 804, 'c'), (0, 250, 'c')]"
sam,corsi_ext,reverse_b,0,9,2,"[(185, -191), (-334, 240), (-76, -85), (276, 67)]",cc,1,0.5,2557,"[(1, 1443, 'c'), (0, 855, 'c')]"
sam,corsi_ext,reverse_b,0,0,3,"[(-165, -62), (295, -3), (301, -207), (-340, -118), (-109, -312), (-259, 74)]",ccc,1,0.333333333333,3435,"[(2, 1981, 'c'), (1, 511, 'c'), (0, 553, 'c')]"
sam,corsi_ext,reverse_b,0,1,3,"[(-10, -91), (265, -236), (-188, -176), (-268, 47), (68, -46), (17, 244)]",ccc,1,0.333333333333,3468,"[(2, 2113, 'c'), (1, 422, 'c'), (0, 538, 'c')]"
sam,corsi_ext,reverse_b,0,2,3,"[(-62, 110), (163, -213), (-307, 206), (-72, 6), (348, 50), (-84, -149)]",ccc,1,0.333333333333,2839,"[(2, 926, 'c'), (1, 622, 'c'), (0, 896, 'c')]"
sam,corsi_ext,reverse_b,0,3,3,"[(-257, 148), (28, -140), (285, 59), (-350, 36), (247, -277), (144, 98)]",ccc,1,0.333333333333,3355,"[(2, 703, 'c'), (1, 478, 'c'), (0, 570, 'c')]"
sam,corsi_ext,reverse_b,0,4,3,"[(-331, 95), (-123, 90), (-35, -228), (69, 132), (302, -76), (-163, 265)]",ccc,1,0.333333333333,2847,"[(2, 603, 'c'), (1, 1064, 'c'), (0, 397, 'c')]"
sam,corsi_ext,reverse_b,0,5,3,"[(198, -25), (-188, 181), (-90, -57), (170, -243), (-221, -283), (298, -342)]",ccc,1,0.333333333333,2057,"[(2, 495, 'c'), (1, 669, 'c'), (0, 501, 'c')]"
sam,corsi_ext,reverse_b,0,6,3,"[(96, -257), (-38, 211), (273, -339), (-284, 316), (-120, -73), (336, 56)]",ccc,1,0.333333333333,2707,"[(2, 841, 'c'), (1, 793, 'c'), (0, 682, 'c')]"
sam,corsi_ext,reverse_b,0,7,3,"[(-135, -257), (121, 51), (-324, 95), (-314, -272), (16, 166), (309, 323)]",ccc,1,0.333333333333,2138,"[(2, 721, 'c'), (1, 492, 'c'), (0, 535, 'c')]"
sam,corsi_ext,reverse_b,0,8,3,"[(307, 145), (164, 193), (313, 65), (-45, 315), (135, 297), (141, 73)]",ccc,1,0.333333333333,2132,"[(2, 735, 'c'), (1, 469, 'c'), (0, 536, 'c')]"
sam,corsi_ext,reverse_b,0,9,3,"[(131, 124), (-66, 35), (326, -338), (31, -153), (-274, 207), (132, -281)]",ccc,1,0.333333333333,2837,"[(2, 940, 'c'), (1, 869, 'c'), (0, 636, 'c')]"
sam,corsi_ext,reverse_b,0,0,4,"[(-7, -123), (-164, -328), (-52, 154), (343, -105), (275, -284), (-296, -22), (103, -189), (-345, -308)]",cccc,1,0.25,4863,"[(3, 987, 'c'), (2, 551, 'c'), (1, 709, 'c'), (0, 612, 'c')]"
sam,corsi_ext,reverse_b,0,1,4,"[(-173, -53), (13, -153), (-10, -227), (-215, 138), (325, 327), (-142, 176), (-234, -171), (311, -291)]",cccc,1,0.25,3750,"[(3, 1040, 'c'), (2, 1076, 'c'), (1, 390, 'c'), (0, 726, 'c')]"
sam,corsi_ext,reverse_b,0,2,4,"[(202, 104), (-77, -269), (64, -63), (-293, -149), (-224, -303), (151, -202), (159, -51), (329, -87)]",cccc,1,0.25,2892,"[(3, 856, 'c'), (2, 377, 'c'), (1, 471, 'c'), (0, 667, 'c')]"
sam,corsi_ext,reverse_b,0,3,4,"[(3, -286), (213, -10), (261, -238), (-233, 297), (-256, -258), (21, -168), (211, 259), (119, 74)]",cccc,1,0.25,3098,"[(3, 835, 'c'), (2, 928, 'c'), (1, 377, 'c'), (0, 439, 'c')]"
sam,corsi_ext,reverse_b,0,4,4,"[(-116, -143), (193, 2), (-176, 32), (15, -288), (65, 214), (154, 239), (-287, 271), (84, 127)]",cccc,1,0.25,3019,"[(3, 675, 'c'), (2, 481, 'c'), (1, 757, 'c'), (0, 582, 'c')]"
sam,corsi_ext,reverse_b,0,5,4,"[(209, 160), (-84, -273), (-119, -85), (-124, 216), (155, -127), (322, 141), (7, -135), (-114, 21)]",cccc,1,0.25,4061,"[(3, 1949, 'c'), (2, 486, 'c'), (1, 547, 'c'), (0, 556, 'c')]"
sam,corsi_ext,reverse_b,0,6,4,"[(12, 98), (-148, 56), (208, -87), (-253, -196), (242, 73), (-76, -177), (211, 238), (11, -341)]",cccc,1,0.25,3522,"[(3, 1263, 'c'), (2, 509, 'c'), (1, 918, 'c'), (0, 312, 'c')]"
sam,corsi_ext,reverse_b,0,7,4,"[(329, -45), (-153, 320), (-105, -298), (-350, 150), (298, 162), (-42, -156), (-200, -38), (-83, 130)]",cccc,1,0.25,5494,"[(3, 2837, 'c'), (2, 552, 'c'), (1, 680, 'c'), (0, 903, 'c')]"
sam,corsi_ext,reverse_b,0,8,4,"[(-76, -284), (273, 305), (122, 16), (309, -106), (-221, 181), (-292, -24), (53, 241), (295, -226)]",cccc,1,0.25,3494,"[(3, 1011, 'c'), (2, 483, 'c'), (1, 776, 'c'), (0, 705, 'c')]"
sam,corsi_ext,reverse_b,0,9,4,"[(-49, 34), (-209, -96), (296, 125), (245, 204), (-121, 91), (-112, 184), (76, 94), (-74, 349)]",cccc,1,0.25,2720,"[(3, 1056, 'c'), (2, 206, 'c'), (1, 497, 'c'), (0, 441, 'c')]"
sam,corsi_ext,reverse_b,0,0,5,"[(-53, 113), (-157, 112), (-248, -20), (89, 345), (-173, -17), (339, 26), (327, 140), (-295, -314), (179, -36), (68, 246)]",ccccc,1,0.2,2978,"[(4, 627, 'c'), (3, 582, 'c'), (2, 582, 'c'), (1, 290, 'c'), (0, 246, 'c')]"
sam,corsi_ext,reverse_b,0,1,5,"[(-203, 276), (-261, 135), (-91, -24), (52, 73), (146, 31), (-330, -36), (-116, 89), (12, 179), (-225, -252), (32, -324)]",ccccc,1,0.2,2644,"[(4, 761, 'c'), (3, 216, 'c'), (2, 230, 'c'), (1, 362, 'c'), (0, 422, 'c')]"
sam,corsi_ext,reverse_b,0,2,5,"[(73, -277), (-349, -165), (-282, -350), (-82, 248), (-139, -320), (-46, 4), (-95, -123), (-62, 323), (-224, -75), (153, -99)]",ccccc,1,0.2,5110,"[(4, 1528, 'c'), (3, 664, 'c'), (2, 673, 'c'), (1, 631, 'c'), (0, 964, 'c')]"
sam,corsi_ext,reverse_b,0,3,5,"[(66, 182), (158, -86), (314, -63), (-39, 65), (311, 20), (-147, 140), (77, -272), (241, 85), (228, -285), (-226, 141)]",ccccc,0,0.0,2388,"[(4, 939, 'c'), (3, 651, 'c'), (1, 537, 'c')]"
sam,corsi_ext,reverse_b,0,4,5,"[(-315, 13), (-222, -62), (211, 148), (-149, -150), (232, -232), (-109, 16), (28, -299), (209, 69), (-254, 241), (-229, 83)]",ccccc,0,0.0,1647,"[(6, 1646, 'c')]"
sam,corsi_ext,reverse_b,0,5,5,"[(307, -154), (-30, -317), (-105, 126), (339, 89), (-75, -206), (41, 8), (174, 32), (-275, -179), (-274, 148), (-287, 65)]",ccccc,1,0.2,4555,"[(4, 919, 'c'), (3, 735, 'c'), (2, 695, 'c'), (1, 624, 'c'), (0, 927, 'c')]"
sam,corsi_ext,reverse_b,0,6,5,"[(96, -194), (201, -291), (53, 238), (-318, -344), (-161, 278), (-97, -55), (31, 339), (167, -3), (-229, -161), (-111, -212)]",ccccc,1,0.2,3751,"[(4, 965, 'c'), (3, 620, 'c'), (2, 598, 'c'), (1, 471, 'c'), (0, 450, 'c')]"
sam,corsi_ext,reverse_b,0,7,5,"[(224, 161), (118, -99), (99, 214), (-183, 225), (206, -170), (147, 295), (-276, -262), (20, 117), (-311, -10), (-219, 97)]",ccccc,0,0.0,3972,"[(4, 786, 'c'), (3, 711, 'c'), (2, 864, 'c'), (0, 1221, 'c')]"
sam,corsi_ext,reverse_b,0,8,5,"[(-236, -77), (267, -323), (344, -138), (-255, 275), (18, -327), (226, -8), (214, 105), (-277, -279), (-151, 158), (-130, 307)]",ccccc,0,0.0,2580,"[(4, 967, 'c'), (3, 662, 'c'), (1, 689, 'c')]"
sam,corsi_ext,reverse_b,0,9,5,"[(132, 278), (-1, -287), (186, 162), (-156, -95), (67, 105), (-189, 180), (-221, 37), (-167, 281), (-69, -70), (233, 318)]",ccccc,0,0.0,2582,"[(4, 1089, 'c'), (3, 568, 'c'), (1, 663, 'c')]"
sam,corsi_ext,reverse_b,0,0,6,"[(-337, 98), (50, -16), (-248, 343), (216, -236), (193, -88), (283, -86), (-182, -83), (-109, -116), (-102, -283), (60, 274), (-64, -42), (-232, 81)]",cccccc,1,0.166666666667,5673,"[(5, 861, 'c'), (4, 433, 'c'), (3, 530, 'c'), (2, 772, 'c'), (1, 1034, 'c'), (0, 1257, 'c')]"
sam,corsi_ext,reverse_b,0,1,6,"[(137, -249), (-122, -108), (-27, 49), (91, 53), (-236, 28), (287, 150), (-185, 346), (33, -191), (139, 344), (192, 116), (-274, -98), (123, 204)]",cccccc,0,0.0,1951,"[(4, 1951, 'c')]"
sam,corsi_ext,reverse_b,0,2,6,"[(-1, 168), (-187, -22), (-191, 204), (29, -252), (280, 154), (200, 199), (263, -230), (91, -123), (-37, 315), (-95, -67), (114, 55), (-350, 128)]",cccccc,0,0.0,2828,"[(5, 988, 'c'), (4, 294, 'c'), (3, 526, 'c'), (1, 626, 'c')]"
sam,corsi_ext,reverse_b,0,3,6,"[(-160, -103), (-155, 293), (253, 264), (-234, -266), (16, -17), (188, -336), (-334, -60), (225, 35), (-120, 19), (254, -253), (-19, -134), (99, -90)]",cccccc,1,0.166666666667,4753,"[(5, 1041, 'c'), (4, 568, 'c'), (3, 399, 'c'), (2, 621, 'c'), (1, 592, 'c'), (0, 752, 'c')]"
sam,corsi_ext,reverse_b,0,4,6,"[(-52, -28), (284, 187), (-124, -218), (-95, 145), (-47, -228), (-103, -323), (93, -37), (168, 116), (171, -228), (-258, -304), (241, -204), (-42, -117)]",cccccc,0,0.0,4160,"[(5, 2222, 'c'), (4, 305, 'c'), (3, 604, 'c'), (1, 644, 'c')]"
sam,corsi_ext,reverse_b,0,5,6,"[(-59, -267), (63, 320), (166, 166), (135, -89), (-321, 169), (265, 244), (-148, 79), (82, 67), (-184, -222), (238, -349), (-74, -41), (248, -137)]",cccccc,0,0.0,3798,"[(5, 1733, 'c'), (4, 1015, 'c'), (0, 787, 'c')]"
sam,corsi_ext,reverse_b,0,6,6,"[(152, -90), (-136, -239), (-206, -287), (161, 263), (130, -301), (217, 343), (-41, 151), (-120, 111), (31, -58), (-317, 349), (39, 52), (5, -133)]",cccccc,0,0.0,1123,"[(0, 1122, 'c')]"
sam,corsi_ext,reverse_b,0,7,6,"[(-21, 105), (260, 223), (-111, -68), (257, -94), (233, -175), (-211, -340), (97, -213), (-125, -254), (81, 189), (265, -289), (-267, 277), (2, -202)]",cccccc,1,0.166666666667,6347,"[(5, 1642, 'c'), (4, 669, 'c'), (3, 268, 'c'), (2, 1247, 'c'), (1, 944, 'c'), (0, 795, 'c')]"
sam,corsi_ext,reverse_b,0,8,6,"[(133, 249), (-197, 310), (-339, -50), (283, -79), (-40, 347), (4, -266), (-227, 126), (-24, 153), (-285, -192), (135, -197), (-188, -200), (321, 101)]",cccccc,0,0.0,5869,"[(5, 2069, 'c'), (4, 658, 'c'), (3, 948, 'c'), (2, 875, 'c'), (0, 800, 'c')]"
sam,corsi_ext,reverse_b,0,9,6,"[(-54, 163), (-337, -199), (203, 210), (-180, -337), (-129, 36), (-169, -161), (210, -121), (-262, -330), (258, -274), (-319, 297), (-5, -281), (147, 78)]",cccccc,0,0.0,5970,"[(5, 1713, 'c'), (4, 302, 'c'), (3, 935, 'c'), (2, 699, 'c'), (1, 573, 'c'), (10, 1095, 'c')]"
sam,corsi_ext,reverse_b,0,0,7,"[(66, -180), (108, 216), (-92, 348), (120, 337), (-219, 320), (-230, -182), (-333, 59), (188, 20), (290, -224), (-204, -34), (213, -198), (202, 102), (278, 257), (17, 307)]",ccccccc,0,0.0,1433,"[(0, 1432, 'c')]"
sam,corsi_ext,reverse_b,0,1,7,"[(-297, 217), (329, 152), (114, -278), (-343, 84), (35, -74), (-294, -114), (286, 74), (252, -160), (-218, 311), (-69, -220), (-224, -99), (280, -279), (189, 138), (-9, 275)]",ccccccc,0,0.0,5823,"[(6, 2289, 'c'), (5, 611, 'c'), (1, 2666, 'c')]"
sam,corsi_ext,reverse_b,0,2,7,"[(-231, -243), (-318, -136), (13, -94), (-90, 194), (99, -118), (301, -1), (-17, -168), (162, -212), (-79, -311), (16, 143), (-173, 266), (-93, 308), (174, -318), (-297, 257)]",ccccccc,0,0.0,3209,"[(6, 1210, 'c'), (5, 627, 'c'), (10, 1109, 'c')]"
sam,corsi_ext,reverse_b,0,3,7,"[(-292, -242), (1, 321), (-215, 266), (119, 344), (-42, 154), (-140, 18), (-37, -38), (111, -97), (277, -279), (212, -40), (185, -287), (336, 206), (-197, -192), (-65, -328)]",ccccccc,0,0.0,4134,"[(6, 508, 'c'), (5, 228, 'c'), (4, 249, 'c'), (3, 536, 'c'), (2, 821, 'c'), (0, 1138, 'c')]"
sam,corsi_ext,reverse_b,0,4,7,"[(-74, 342), (131, -128), (322, -144), (-271, 309), (305, 34), (-314, -40), (222, -340), (-151, 317), (-200, -209), (280, 268), (26, 289), (323, -334), (110, 82), (-57, 92)]",ccccccc,0,0.0,4430,"[(6, 1094, 'c'), (5, 576, 'c'), (4, 978, 'c'), (1, 1389, 'c')]"
sam,corsi_ext,reverse_b,0,5,7,"[(148, -276), (250, 42), (88, 42), (-163, 247), (149, 288), (234, 154), (-326, -3), (-310, 145), (335, -245), (221, -136), (-18, -77), (325, -89), (4, 38), (97, -163)]",ccccccc,0,0.0,3813,"[(6, 1610, 'c'), (5, 892, 'c'), (4, 378, 'c'), (2, 539, 'c')]"
sam,corsi_ext,reverse_b,0,6,7,"[(304, -194), (-147, -350), (-318, -152), (-279, 176), (108, 135), (133, -109), (-240, -179), (-89, -87), (326, 185), (-50, -316), (-285, -295), (-195, 191), (146, 54), (-308, 42)]",ccccccc,0,0.0,3359,"[(6, 1784, 'c'), (5, 513, 'c'), (3, 801, 'c')]"
sam,corsi_ext,reverse_b,0,7,7,"[(-346, 208), (111, -162), (-140, 68), (-270, -16), (-238, -209), (117, -326), (206, 113), (-349, 18), (-70, -273), (13, 107), (304, -136), (37, -41), (45, 178), (-32, -127)]",ccccccc,0,0.0,5896,"[(6, 1721, 'c'), (5, 568, 'c'), (4, 1241, 'c'), (11, 1977, 'c')]"
sam,corsi_ext,reverse_b,0,8,7,"[(-198, 220), (120, -153), (30, -173), (-138, -250), (6, 153), (-162, 339), (218, -87), (23, 66), (85, -291), (226, 316), (240, 243), (173, 118), (80, -56), (242, -288)]",ccccccc,0,0.0,3467,"[(6, 2148, 'c'), (5, 536, 'c'), (3, 522, 'c')]"
sam,corsi_ext,reverse_b,0,9,7,"[(154, -269), (-11, -301), (-119, -333), (233, -45), (67, 162), (-284, 115), (-187, 27), (344, -49), (-281, -201), (-171, 328), (51, 50), (179, -128), (-5, -98), (-201, -181)]",ccccccc,0,0.0,4763,"[(6, 1037, 'c'), (5, 398, 'c'), (4, 580, 'c'), (3, 1026, 'c'), (1, 1205, 'c')]"
sam,corsi_ext,reverse_b,0,0,8,"[(-299, -347), (-232, -224), (-310, 153), (-279, -24), (-40, 286), (26, -293), (213, 39), (62, -177), (272, -43), (267, -252), (297, 264), (-185, 229), (-65, -143), (317, -128), (-151, -231), (92, 308)]",cccccccc,0,0.0,687,"[(5, 686, 'c')]"
sam,corsi_ext,reverse_b,0,1,8,"[(14, -18), (-206, 78), (-31, -135), (-190, 155), (236, 13), (105, -222), (277, -250), (126, -315), (62, 250), (57, -109), (30, 122), (339, -45), (-59, -41), (196, 286), (-44, 291), (-311, -339)]",cccccccc,0,0.0,6188,"[(7, 1047, 'c'), (6, 260, 'c'), (5, 488, 'c'), (4, 829, 'c'), (3, 948, 'c'), (15, 1958, 'c')]"
sam,corsi_ext,reverse_b,0,2,8,"[(-252, -106), (-242, 66), (181, 130), (-302, 317), (290, -294), (-250, -12), (54, -138), (254, -16), (44, 176), (-72, 282), (-257, -269), (270, -127), (-98, -270), (-336, 2), (-187, -326), (240, 271)]",cccccccc,0,0.0,2536,"[(7, 1222, 'c'), (6, 375, 'c'), (4, 671, 'c')]"
sam,corsi_ext,reverse_b,0,3,8,"[(146, -185), (-153, -148), (195, 76), (-346, -137), (61, -183), (-350, 122), (26, -270), (-295, -341), (24, -75), (172, -103), (-228, 159), (233, -259), (342, -71), (-135, 134), (163, 0), (287, 82)]",cccccccc,0,0.0,5914,"[(7, 845, 'c'), (6, 525, 'c'), (5, 841, 'c'), (4, 2019, 'c'), (0, 1160, 'c')]"
sam,corsi_ext,reverse_b,0,4,8,"[(-321, 240), (-217, 305), (-268, 1), (-117, -302), (-266, -203), (-306, 78), (136, 33), (-303, -318), (-282, -116), (-76, 223), (-213, 131), (18, 149), (216, 75), (299, 241), (-341, 334), (45, 267)]",cccccccc,0,0.0,3735,"[(7, 1848, 'c'), (6, 504, 'c'), (5, 480, 'c'), (3, 509, 'c')]"
sam,corsi_ext,reverse_b,0,5,8,"[(157, 80), (286, 44), (-51, 337), (-228, -301), (158, -340), (-144, -156), (-283, 169), (-100, -69), (8, -232), (298, 265), (-219, -190), (-146, -240), (-70, -163), (-239, 22), (-134, 51), (186, 220)]",cccccccc,0,0.0,5684,"[(7, 1713, 'c'), (6, 632, 'c'), (5, 547, 'c'), (4, 1343, 'c'), (1, 935, 'c')]"
sam,corsi_ext,reverse_b,0,6,8,"[(-108, -125), (-246, -222), (-63, 212), (-217, 9), (-165, 110), (41, -222), (155, 319), (-192, -133), (332, 23), (32, 288), (51, 112), (-287, 118), (19, -55), (212, 79), (195, -245), (-309, 343)]",cccccccc,0,0.0,4856,"[(7, 842, 'c'), (6, 645, 'c'), (5, 646, 'c'), (4, 549, 'c'), (1, 1654, 'c')]"
sam,corsi_ext,reverse_b,0,7,8,"[(80, 170), (279, -241), (280, 135), (-184, 26), (-301, -107), (-128, 242), (47, -245), (-88, -63), (-161, -320), (26, 31), (271, 50), (-323, 59), (-32, 301), (0, 122), (-236, -339), (-238, 207)]",cccccccc,0,0.0,3101,"[(7, 1955, 'c'), (6, 346, 'c'), (0, 536, 'c')]"
sam,corsi_ext,reverse_b,0,8,8,"[(168, 278), (243, 122), (212, -127), (-264, -223), (56, 8), (-244, 50), (-260, -327), (134, -330), (-64, 319), (-301, -120), (94, 348), (294, -152), (255, 335), (22, -148), (-71, -341), (172, 118)]",cccccccc,0,0.0,4461,"[(7, 1750, 'c'), (6, 340, 'c'), (5, 824, 'c'), (0, 1153, 'c')]"
sam,corsi_ext,reverse_b,0,9,8,"[(286, -97), (197, -108), (-209, -252), (305, -330), (175, 322), (64, 229), (-90, -223), (266, 237), (-332, 208), (37, -291), (13, -192), (33, -40), (-149, -1), (-127, 187), (-304, 47), (-7, 109)]",cccccccc,0,0.0,5241,"[(7, 1706, 'c'), (6, 496, 'c'), (5, 580, 'c'), (1, 2068, 'c')]"
sam,corsi_ext,reverse_b,0,0,9,"[(194, 5), (-17, -217), (-99, -83), (-312, -21), (231, -340), (89, -52), (268, 99), (293, -167), (-229, -19), (-98, 33), (346, -95), (230, 318), (-86, 220), (35, 338), (138, 245), (105, 131), (-192, 78), (118, 332)]",ccccccccc,0,0.0,5573,"[(8, 1328, 'c'), (7, 727, 'c'), (6, 438, 'c'), (5, 498, 'c'), (4, 867, 'c'), (16, 1066, 'c')]"
sam,corsi_ext,reverse_b,0,1,9,"[(-259, 151), (-345, 163), (199, 325), (-345, -151), (319, -142), (231, -201), (210, 9), (-303, -19), (-26, -160), (-12, 10), (-228, -307), (61, -104), (-7, -236), (87, 101), (-348, 316), (-260, -206), (-233, 234), (-140, -196)]",ccccccccc,0,0.0,3042,"[(8, 1397, 'c'), (7, 530, 'c'), (5, 849, 'c')]"
sam,corsi_ext,reverse_b,0,2,9,"[(-42, -170), (80, 150), (-144, -332), (-336, -26), (-215, 50), (-94, -248), (-227, 256), (-167, -20), (130, -332), (-340, 245), (-27, 158), (279, 215), (-70, 46), (165, 169), (33, 341), (33, -164), (-333, -203), (296, -287)]",ccccccccc,0,0.0,3243,"[(8, 1914, 'c'), (6, 1199, 'c')]"
sam,corsi_ext,reverse_b,0,3,9,"[(1, 22), (-335, 328), (234, 44), (-54, -164), (74, 50), (19, 325), (139, -78), (337, 327), (330, -293), (-86, -47), (38, 184), (46, -331), (-151, 310), (116, -170), (141, -329), (-144, 56), (19, 255), (-185, 175)]",ccccccccc,0,0.0,3636,"[(8, 1780, 'c'), (7, 710, 'c'), (9, 881, 'c')]"
sam,corsi_ext,reverse_b,0,4,9,"[(-227, 81), (-340, 277), (287, 191), (-350, 167), (78, -9), (-85, 126), (-235, -215), (279, -85), (-197, -342), (-161, -10), (-123, -109), (116, 249), (-260, 292), (-170, 190), (161, 322), (-40, -156), (-35, 273), (144, 107)]",ccccccccc,0,0.0,3259,"[(8, 911, 'c'), (7, 499, 'c'), (6, 532, 'c'), (1, 928, 'c')]"
sam,corsi_ext,reverse_b,0,5,9,"[(-87, -308), (-90, -198), (-187, 5), (53, 84), (38, 326), (110, -329), (222, 218), (-287, 295), (348, 90), (-310, -76), (31, -250), (181, -58), (125, -248), (250, 146), (-65, 300), (279, 316), (-343, 77), (217, 29)]",ccccccccc,0,0.0,4204,"[(8, 1997, 'c'), (7, 926, 'c'), (0, 1021, 'c')]"
sam,corsi_ext,reverse_b,0,6,9,"[(-180, 82), (107, 64), (99, -310), (-227, -167), (-138, 329), (93, 215), (76, -119), (30, 129), (-95, 19), (-328, 189), (-21, -175), (112, -207), (-257, -40), (-213, -283), (81, 305), (285, 215), (250, -131), (-175, 156)]",ccccccccc,0,0.0,3875,"[(8, 1910, 'c'), (7, 345, 'c'), (6, 453, 'c'), (3, 777, 'c')]"
sam,corsi_ext,reverse_b,0,7,9,"[(297, 23), (109, -346), (304, 159), (16, 32), (274, 330), (134, -155), (216, 106), (217, 217), (17, -336), (35, -152), (-93, 196), (104, 225), (-262, -125), (11, 201), (-241, -252), (-19, 309), (205, -143), (-139, -92)]",ccccccccc,0,0.0,3252,"[(8, 1658, 'c'), (7, 677, 'c'), (6, 237, 'c'), (0, 282, 'c')]"
sam,corsi_ext,reverse_b,0,8,9,"[(225, 2), (-152, -154), (-43, 274), (51, 349), (-228, 256), (70, -258), (310, 29), (296, -117), (183, 191), (144, 51), (276, 115), (-301, -176), (-325, -9), (-157, 172), (196, 304), (-188, 91), (187, -209), (-39, 182)]",ccccccccc,0,0.0,4667,"[(8, 949, 'c'), (7, 499, 'c'), (6, 456, 'c'), (5, 419, 'c'), (4, 1087, 'c'), (1, 602, 'c')]"
sam,corsi_ext,reverse_b,0,9,9,"[(247, -125), (-151, -56), (-1, 70), (43, -122), (-221, 154), (-274, -283), (-133, -207), (148, -290), (-190, -296), (318, 139), (322, -42), (-208, 61), (-34, -177), (348, 267), (164, -148), (-273, 329), (63, -27), (-265, -203)]",ccccccccc,0,0.0,2937,"[(8, 1573, 'c'), (7, 526, 'c'), (5, 575, 'c')]"
sam,corsi_ext,sequence_b,0,0,2,"[(262, -193), (246, 325), (227, -279), (333, 31)]",cx,1,0.5,1670,"[(0, 890, 'c'), (1, 512, 'c')]"
sam,corsi_ext,sequence_b,0,1,2,"[(-203, 169), (56, 23), (-58, -318), (143, -70)]",xc,1,0.5,1464,"[(1, 762, 'c'), (0, 443, 'c')]"
sam,corsi_ext,sequence_b,0,2,2,"[(-89, -41), (-203, -80), (-12, -57), (131, 22)]",cx,1,0.5,2149,"[(0, 1255, 'c'), (1, 377, 'c')]"
sam,corsi_ext,sequence_b,0,3,2,"[(-73, 337), (-113, -189), (-74, 231), (252, 84)]",xc,1,0.5,1760,"[(1, 714, 'c'), (0, 784, 'c')]"
sam,corsi_ext,sequence_b,0,4,2,"[(220, 238), (-58, -302), (-271, 46), (-196, -42)]",xc,1,0.5,1740,"[(1, 959, 'c'), (0, 520, 'c')]"
sam,corsi_ext,sequence_b,0,5,2,"[(-10, -68), (116, 342), (309, -234), (-189, 23)]",xc,1,0.5,2552,"[(1, 1730, 'c'), (0, 562, 'c')]"
sam,corsi_ext,sequence_b,0,6,2,"[(-299, -292), (-296, 244), (-147, 152), (-301, -55)]",cx,1,0.5,2676,"[(0, 1724, 'c'), (1, 689, 'c')]"
sam,corsi_ext,sequence_b,0,7,2,"[(91, 147), (74, -10), (-80, 178), (296, 67)]",cx,1,0.5,1396,"[(0, 887, 'c'), (1, 251, 'c')]"
sam,corsi_ext,sequence_b,0,8,2,"[(-262, -156), (-308, 81), (-347, 184), (-67, -228)]",xc,1,0.5,2095,"[(1, 1300, 'c'), (0, 534, 'c')]"
sam,corsi_ext,sequence_b,0,9,2,"[(329, 119), (247, -110), (-264, 102), (-180, 186)]",xc,1,0.5,2634,"[(1, 1657, 'c'), (0, 716, 'c')]"
sam,corsi_ext,sequence_b,0,0,3,"[(70, 118), (-56, 175), (313, -154), (-283, -33), (-172, -38), (13, 283)]",xcx,1,0.333333333333,2367,"[(1, 1100, 'c'), (0, 421, 'c'), (2, 453, 'c')]"
sam,corsi_ext,sequence_b,0,1,3,"[(-188, -13), (-294, -194), (139, -222), (-78, 338), (87, -129), (-144, -231)]",xcc,1,0.333333333333,5765,"[(1, 4201, 'c'), (2, 506, 'c'), (0, 668, 'c')]"
sam,corsi_ext,sequence_b,0,2,3,"[(203, -59), (-43, -69), (107, -114), (232, -191), (48, -302), (-306, 330)]",cxx,1,0.333333333333,2559,"[(0, 1414, 'c'), (1, 516, 'c'), (2, 237, 'c')]"
sam,corsi_ext,sequence_b,0,3,3,"[(311, 106), (-221, 145), (291, -234), (-285, 69), (-278, -21), (74, -330)]",cxc,0,0.0,2800,"[(0, 1795, 'c'), (1, 875, 'c')]"
sam,corsi_ext,sequence_b,0,4,3,"[(218, 105), (-116, 191), (36, 30), (52, 347), (68, 239), (-146, -258)]",cxx,1,0.333333333333,1909,"[(0, 850, 'c'), (1, 432, 'c'), (2, 235, 'c')]"
sam,corsi_ext,sequence_b,0,5,3,"[(108, 52), (62, 184), (-28, 261), (-283, -250), (136, 179), (67, 254)]",cxc,1,0.333333333333,2817,"[(0, 1428, 'c'), (2, 773, 'c'), (1, 224, 'c')]"
sam,corsi_ext,sequence_b,0,6,3,"[(-78, -101), (5, -316), (255, 246), (-327, 8), (-71, -197), (28, 124)]",xcc,1,0.333333333333,2689,"[(1, 1083, 'c'), (2, 644, 'c'), (0, 568, 'c')]"
sam,corsi_ext,sequence_b,0,7,3,"[(-21, 330), (-156, 4), (-346, 306), (139, 229), (-253, -267), (249, -338)]",cxx,1,0.333333333333,2601,"[(0, 1031, 'c'), (1, 327, 'c'), (2, 848, 'c')]"
sam,corsi_ext,sequence_b,0,8,3,"[(194, 33), (-182, -109), (320, -194), (-226, 331), (-164, -347), (288, 188)]",cxx,1,0.333333333333,3384,"[(0, 1642, 'c'), (1, 433, 'c'), (2, 356, 'c')]"
sam,corsi_ext,sequence_b,0,9,3,"[(330, -52), (343, 70), (-350, 147), (-46, -263), (235, 92), (-140, -4)]",cxc,1,0.333333333333,2769,"[(0, 1169, 'c'), (2, 551, 'c'), (1, 656, 'c')]"
sam,corsi_ext,sequence_b,0,0,4,"[(133, -67), (63, 301), (324, -33), (-201, 236), (239, -33), (302, -242), (265, -129), (331, 90)]",ccxx,1,0.25,2944,"[(0, 740, 'c'), (1, 561, 'c'), (2, 493, 'c'), (3, 625, 'c')]"
sam,corsi_ext,sequence_b,0,1,4,"[(347, -178), (-82, -29), (203, 197), (283, 168), (150, 318), (-13, 275), (183, 110), (-200, -113)]",ccxx,0,0.0,5329,"[(0, 1757, 'c'), (1, 547, 'c'), (3, 1249, 'c')]"
sam,corsi_ext,sequence_b,0,2,4,"[(-40, -310), (53, 156), (244, 249), (-225, 75), (100, -71), (-95, 150), (5, -239), (319, -344)]",cxxc,1,0.25,3402,"[(0, 685, 'c'), (3, 706, 'c'), (1, 824, 'c'), (2, 670, 'c')]"
sam,corsi_ext,sequence_b,0,3,4,"[(-85, -42), (-300, 180), (218, -340), (-337, -67), (167, 331), (-215, 75), (118, 215), (-98, 118)]",cxxc,1,0.25,2818,"[(0, 581, 'c'), (3, 269, 'c'), (1, 739, 'c'), (2, 709, 'c')]"
sam,corsi_ext,sequence_b,0,4,4,"[(-323, -225), (-192, -307), (284, -331), (-239, 275), (100, -276), (87, 130), (-110, 316), (-215, -158)]",cxxc,1,0.25,3356,"[(0, 875, 'c'), (3, 509, 'c'), (1, 746, 'c'), (2, 707, 'c')]"
sam,corsi_ext,sequence_b,0,5,4,"[(347, 198), (46, 21), (-252, -174), (19, 319), (73, 126), (-148, 314), (33, -253), (-135, -118)]",cxcx,0,0.0,2571,"[(0, 1162, 'c'), (2, 661, 'c'), (7, 483, 'c')]"
sam,corsi_ext,sequence_b,0,6,4,"[(-63, 165), (-72, -246), (156, 187), (174, 296), (112, 109), (291, -306), (54, 228), (-27, 346)]",xcxc,1,0.25,3853,"[(1, 919, 'c'), (3, 649, 'c'), (0, 703, 'c'), (2, 315, 'c')]"
sam,corsi_ext,sequence_b,0,7,4,"[(280, 189), (-20, -240), (-225, -65), (-25, -87), (-210, 54), (-63, -167), (73, 37), (-336, 239)]",ccxx,1,0.25,3728,"[(0, 1172, 'c'), (1, 862, 'c'), (2, 638, 'c'), (3, 530, 'c')]"
sam,corsi_ext,sequence_b,0,8,4,"[(-85, 204), (-344, -130), (29, -181), (-280, 298), (-271, -298), (-245, 36), (49, 120), (313, -92)]",ccxx,1,0.25,3309,"[(0, 847, 'c'), (1, 649, 'c'), (2, 610, 'c'), (3, 679, 'c')]"
sam,corsi_ext,sequence_b,0,9,4,"[(306, -117), (163, -58), (154, -276), (107, -159), (129, 64), (14, -178), (6, 328), (-68, 125)]",ccxx,1,0.25,2415,"[(0, 616, 'c'), (1, 304, 'c'), (2, 572, 'c'), (3, 398, 'c')]"
sam,corsi_ext,sequence_b,0,0,5,"[(49, 49), (282, 110), (245, -51), (83, 293), (103, 165), (-130, 15), (-329, 178), (-103, -174), (-298, -38), (-162, 341)]",xccxx,1,0.2,3355,"[(1, 818, 'c'), (2, 342, 'c'), (0, 740, 'c'), (3, 495, 'c'), (4, 305, 'c')]"
sam,corsi_ext,sequence_b,0,1,5,"[(340, -131), (88, 105), (119, 324), (-258, -51), (326, -310), (-182, -277), (-43, 154), (-299, 81), (-170, -143), (30, -127)]",cxcxc,0,0.0,1589,"[(4, 1588, 'c')]"
sam,corsi_ext,sequence_b,0,2,5,"[(98, -290), (105, 143), (-226, 64), (290, 199), (-42, -77), (13, 121), (-173, 253), (-127, -91), (293, 276), (300, -265)]",ccxxc,0,0.0,4168,"[(0, 1026, 'c'), (1, 1025, 'c'), (2, 1858, 'c')]"
sam,corsi_ext,sequence_b,0,3,5,"[(108, 219), (-165, 286), (-196, 145), (-106, -54), (-305, -149), (264, 289), (115, -279), (32, -190), (-336, -331), (-257, -236)]",xxccx,1,0.2,4073,"[(2, 829, 'c'), (3, 464, 'c'), (0, 832, 'c'), (1, 387, 'c'), (4, 588, 'c')]"
sam,corsi_ext,sequence_b,0,4,5,"[(-196, 237), (-328, 253), (-115, -313), (-342, -341), (-323, -225), (35, 341), (231, -39), (-173, 57), (281, 100), (163, 285)]",xccxc,0,0.0,1720,"[(1, 1051, 'c'), (7, 536, 'c')]"
sam,corsi_ext,sequence_b,0,5,5,"[(178, -344), (172, 254), (-77, -44), (51, 87), (-225, 117), (348, -151), (65, 282), (-286, -312), (-169, -290), (-228, 299)]",cxcxc,1,0.2,3917,"[(0, 831, 'c'), (2, 517, 'c'), (4, 442, 'c'), (1, 956, 'c'), (3, 518, 'c')]"
sam,corsi_ext,sequence_b,0,6,5,"[(169, 105), (280, -12), (-121, 271), (316, 203), (255, -295), (-236, -340), (182, -224), (-331, 181), (112, 195), (-5, -206)]",cxxcx,0,0.0,3885,"[(0, 1183, 'c'), (3, 807, 'c'), (2, 1113, 'c')]"
sam,corsi_ext,sequence_b,0,7,5,"[(331, 269), (-203, -313), (192, -96), (-257, 150), (-232, -173), (-1, 81), (260, -219), (-270, 39), (122, 324), (189, -215)]",xxccx,1,0.2,5756,"[(2, 1122, 'c'), (3, 611, 'c'), (0, 2314, 'c'), (1, 721, 'c'), (4, 338, 'c')]"
sam,corsi_ext,sequence_b,0,8,5,"[(338, 245), (-88, -26), (-152, -144), (191, -211), (-246, -83), (14, -88), (208, 55), (-225, 1), (155, -36), (58, 12)]",cxxcc,0,0.0,4751,"[(0, 1023, 'c'), (3, 837, 'c'), (4, 982, 'c'), (9, 1516, 'c')]"
sam,corsi_ext,sequence_b,0,9,5,"[(133, -136), (36, -32), (54, 113), (345, -111), (-87, -83), (103, -350), (346, 17), (230, -294), (234, -26), (130, 166)]",cxcxx,0,0.0,4598,"[(0, 1006, 'c'), (2, 438, 'c'), (7, 2889, 'c')]"
sam,corsi_ext,sequence_b,0,0,6,"[(-273, -12), (-233, -347), (-167, 325), (-171, 211), (257, -196), (161, -220), (-246, -257), (-78, 236), (-269, 297), (-331, 100), (125, 56), (114, -70)]",xcxxcc,0,0.0,4940,"[(1, 1312, 'c'), (4, 592, 'c'), (5, 348, 'c'), (0, 810, 'c'), (8, 1355, 'c')]"
sam,corsi_ext,sequence_b,0,1,6,"[(-139, 25), (251, 299), (-7, 33), (343, -285), (213, -32), (-33, -58), (275, -192), (319, -23), (228, 199), (82, 112), (-54, 118), (339, 308)]",cxxccx,0,0.0,2774,"[(0, 524, 'c'), (4, 1035, 'c')]"
sam,corsi_ext,sequence_b,0,2,6,"[(200, 219), (320, 16), (165, 297), (-226, 238), (-211, -125), (-324, 234), (-49, -321), (-256, -319), (-177, 117), (-3, 139), (260, 342), (167, -127)]",cxccxx,0,0.0,2168,"[(0, 1200, 'c'), (3, 837, 'c')]"
sam,corsi_ext,sequence_b,0,3,6,"[(-52, -322), (-113, -53), (124, 200), (212, -178), (-145, 17), (-240, -38), (258, 323), (-171, -325), (214, 29), (53, 23), (17, 296), (26, -323)]",cxcxxc,0,0.0,2785,"[(0, 594, 'c'), (2, 634, 'c'), (5, 659, 'c'), (4, 506, 'c')]"
sam,corsi_ext,sequence_b,0,4,6,"[(15, 83), (-137, -192), (328, -337), (-75, 341), (300, 70), (254, 145), (-275, 228), (43, -311), (164, -15), (88, -192), (103, 334), (-283, -328)]",xccxxc,1,0.166666666667,6207,"[(1, 1010, 'c'), (2, 645, 'c'), (5, 712, 'c'), (0, 884, 'c'), (3, 1314, 'c'), (4, 861, 'c')]"
sam,corsi_ext,sequence_b,0,5,6,"[(104, 21), (-71, -4), (-126, 113), (20, -204), (24, 280), (175, -216), (212, -63), (-350, -149), (328, 51), (-160, -226), (-27, -349), (33, 207)]",xccxcx,1,0.166666666667,4963,"[(1, 800, 'c'), (2, 407, 'c'), (4, 353, 'c'), (0, 597, 'c'), (3, 679, 'c'), (5, 1346, 'c')]"
sam,corsi_ext,sequence_b,0,6,6,"[(-319, 91), (312, 331), (-95, -265), (347, 14), (-267, -259), (319, -253), (68, -273), (-216, -178), (33, 340), (-214, 164), (-265, 11), (-72, -128)]",xccxcx,0,0.0,3441,"[(1, 1250, 'c'), (2, 602, 'c'), (4, 297, 'c'), (9, 902, 'c')]"
sam,corsi_ext,sequence_b,0,7,6,"[(247, 266), (-69, 105), (154, 330), (-11, 21), (-71, 333), (-301, 178), (-240, 300), (-16, -326), (275, -23), (-57, -168), (-193, -69), (70, -56)]",xxcccx,0,0.0,5825,"[(2, 1063, 'c'), (3, 1932, 'c'), (4, 629, 'c'), (0, 822, 'c'), (5, 858, 'c')]"
sam,corsi_ext,sequence_b,0,8,6,"[(-199, -114), (-113, -124), (327, 235), (33, -106), (-227, 23), (171, -197), (-231, 339), (-270, -306), (289, 308), (128, 305), (-112, 288), (308, 68)]",cxcxcx,0,0.0,693,"[(1, 692, 'c')]"
sam,corsi_ext,sequence_b,0,9,6,"[(-332, -297), (288, 191), (-60, 24), (295, 297), (-186, 195), (197, 11), (-120, 331), (28, 232), (-280, 211), (-206, 23), (-308, 317), (265, -189)]",xxxccc,0,0.0,3375,"[(3, 1017, 'c'), (4, 950, 'c'), (5, 453, 'c'), (1, 561, 'c')]"
sam,corsi_ext,sequence_b,0,0,7,"[(-345, 81), (242, 226), (13, -11), (-148, -283), (336, -177), (-336, -186), (232, 82), (209, -265), (243, -15), (56, -269), (-30, 144), (54, 343), (186, -174), (90, 257)]",cxccxxc,0,0.0,4722,"[(0, 1257, 'c'), (2, 463, 'c'), (3, 520, 'c'), (6, 599, 'c'), (1, 525, 'c'), (5, 699, 'c')]"
sam,corsi_ext,sequence_b,0,1,7,"[(-84, -102), (24, 330), (44, 87), (-53, 71), (40, -59), (-329, 167), (-87, -244), (235, 333), (241, 151), (-307, 93), (-271, 322), (-246, 233), (-158, 228), (-160, -341)]",xxxcccc,0,0.0,4566,"[(3, 1275, 'c'), (4, 472, 'c'), (5, 777, 'c'), (6, 618, 'c'), (1, 903, 'c')]"
sam,corsi_ext,sequence_b,0,2,7,"[(-159, -308), (136, 333), (-185, -63), (258, -127), (-13, -327), (-113, 59), (84, 118), (-240, 338), (218, 287), (-11, 187), (-72, -15), (181, -49), (256, -277), (-296, 183)]",cxxccxc,0,0.0,5063,"[(0, 1769, 'c'), (3, 516, 'c'), (4, 513, 'c'), (6, 716, 'c'), (10, 1030, 'c')]"
sam,corsi_ext,sequence_b,0,3,7,"[(298, -123), (-341, -92), (-329, -304), (-42, -153), (-32, 230), (-105, -224), (-345, 90), (243, -312), (-171, 21), (252, 334), (-256, -308), (-134, 184), (234, -10), (225, 80)]",xcccxxc,0,0.0,5186,"[(1, 1122, 'c'), (2, 388, 'c'), (3, 526, 'c'), (6, 708, 'c'), (0, 772, 'c'), (5, 1013, 'c')]"
sam,corsi_ext,sequence_b,0,4,7,"[(-296, 156), (185, 98), (-206, -156), (113, 337), (243, 204), (-112, 59), (-68, 301), (318, -334), (135, -126), (-80, 167), (304, -153), (104, 224), (323, 138), (-303, -206)]",cxxxccc,0,0.0,4391,"[(0, 1904, 'c'), (4, 513, 'c'), (5, 517, 'c'), (6, 365, 'c'), (2, 566, 'c')]"
sam,corsi_ext,sequence_b,0,5,7,"[(78, 21), (179, -22), (78, -137), (-223, 71), (-348, 8), (288, -26), (339, -339), (119, 153), (-36, 119), (73, 233), (-272, -29), (-144, -297), (-308, -341), (-90, -83)]",xxcccxx,0,0.0,4638,"[(2, 1137, 'c'), (3, 865, 'c'), (4, 1340, 'c'), (13, 906, 'c')]"
sam,corsi_ext,sequence_b,0,6,7,"[(-270, -18), (-8, 136), (-140, -81), (-83, 145), (88, 111), (102, 221), (-152, 18), (241, -17), (-189, 104), (308, 226), (159, 316), (-131, -164), (-327, 227), (129, -81)]",cxcxcxx,0,0.0,2518,"[(0, 1154, 'c'), (2, 315, 'c'), (3, 790, 'c')]"
sam,corsi_ext,sequence_b,0,7,7,"[(-341, 327), (34, -256), (-30, 161), (-139, -80), (142, -269), (204, -57), (-72, -214), (-58, 298), (-241, -115), (-306, 200), (112, 288), (209, 52), (-151, 58), (102, -138)]",ccxcxxx,0,0.0,3827,"[(0, 1147, 'c'), (1, 658, 'c'), (3, 436, 'c'), (2, 592, 'c'), (6, 477, 'c')]"
sam,corsi_ext,sequence_b,0,8,7,"[(69, -212), (-311, -317), (-11, 119), (-284, -206), (85, 209), (-89, 314), (-279, -61), (-47, 26), (-102, 106), (-302, 47), (302, 84), (195, -212), (272, -121), (-315, 217)]",ccxcxxx,0,0.0,3074,"[(3, 3074, 'c')]"
sam,corsi_ext,sequence_b,0,9,7,"[(290, 89), (320, -179), (-248, -214), (-309, -328), (277, -100), (-5, 9), (-176, -248), (-220, 13), (-52, -178), (-25, -277), (-209, -334), (-94, 215), (-306, 206), (-220, 291)]",xxcccxx,0,0.0,4228,"[(2, 1875, 'c'), (3, 496, 'c'), (4, 724, 'c'), (5, 744, 'c')]"
sam,corsi_ext,sequence_b,0,0,8,"[(273, -345), (-190, -30), (246, 286), (128, -107), (-333, -100), (349, -114), (-331, -233), (-86, -79), (-98, -307), (-62, 271), (235, 93), (-34, 186), (23, 21), (-200, 160), (-148, -154), (-12, -55)]",cxxxccxc,0,0.0,2355,"[(0, 989, 'c'), (4, 699, 'c'), (7, 402, 'c')]"
sam,corsi_ext,sequence_b,0,1,8,"[(-281, -283), (76, 188), (234, -310), (204, 11), (315, -337), (-166, 146), (-33, 317), (-42, -73), (-193, 261), (-108, -210), (-59, 32), (159, 121), (321, 334), (251, 270), (-291, 268), (-155, -115)]",xxccccxx,0,0.0,4307,"[(2, 879, 'c'), (3, 482, 'c'), (4, 516, 'c'), (5, 550, 'c'), (1, 1356, 'c')]"
sam,corsi_ext,sequence_b,0,2,8,"[(-344, -244), (341, -233), (249, 120), (-221, 276), (139, -311), (-187, -240), (-346, 128), (-141, 177), (-90, -222), (145, -112), (-77, -112), (-333, -84), (267, -78), (-137, 296), (337, -140), (219, 337)]",xcccxcxx,0,0.0,6003,"[(1, 2144, 'c'), (2, 417, 'c'), (3, 639, 'c'), (5, 655, 'c'), (7, 1625, 'c')]"
sam,corsi_ext,sequence_b,0,3,8,"[(47, 96), (-5, -308), (170, -23), (-299, 235), (-343, 34), (180, 228), (10, 290), (297, 334), (-167, 54), (327, -188), (290, 207), (-149, -159), (321, -70), (-37, 117), (-216, -276), (-41, -209)]",xcxxccxc,0,0.0,5405,"[(1, 2447, 'c'), (4, 1927, 'c'), (7, 773, 'c')]"
sam,corsi_ext,sequence_b,0,4,8,"[(206, 283), (40, -207), (-345, 228), (-254, -260), (-80, 349), (-2, 129), (180, -153), (346, 309), (31, 335), (265, -336), (298, -137), (123, 99), (80, -101), (-285, -31), (-77, 184), (-142, -245)]",cxcxcxxc,0,0.0,1796,"[(1, 1795, 'c')]"
sam,corsi_ext,sequence_b,0,5,8,"[(-240, 167), (243, -61), (303, 169), (153, 280), (241, -311), (-347, 15), (263, 311), (328, -313), (-240, 78), (-81, 34), (-341, -315), (157, -52), (-25, 227), (66, -48), (270, 239), (-161, -80)]",ccxxcxxc,0,0.0,7241,"[(0, 655, 'c'), (1, 780, 'c'), (4, 636, 'c'), (7, 489, 'c'), (14, 2961, 'c')]"
sam,corsi_ext,sequence_b,0,6,8,"[(-10, 10), (259, -198), (89, 31), (-195, 227), (157, 209), (-266, -293), (174, -328), (-171, -176), (327, 345), (-158, -320), (176, -184), (-4, -278), (-29, 132), (-326, 166), (322, 50), (334, -331)]",cxcxcxcx,0,0.0,4193,"[(0, 1107, 'c'), (2, 358, 'c'), (4, 473, 'c'), (6, 645, 'c'), (7, 1084, 'c')]"
sam,corsi_ext,sequence_b,0,7,8,"[(-77, 3), (-90, -106), (238, 169), (-190, 249), (170, 271), (-237, 38), (198, -250), (126, 341), (-320, 333), (-327, -46), (-15, 302), (243, -348), (113, -169), (1, -106), (-227, 116), (313, -47)]",cxxxcccx,0,0.0,1222,"[(0, 863, 'c'), (1, 227, 'c')]"
