proband_id,test_name,condition,phase,trialn,n,positions,symbols,correct,rt,responses,rt_first
4423,corsi,simultaneous,practice,0,2,"[(-194, -114), (255, -160), (-285, 153), (-269, -186)]",cc,1,5258,"[(0, 1081), (1, 2150)]",1081
4423,corsi,simultaneous,test,0,2,"[(153, -282), (-201, 292), (141, -30), (-130, -168)]",cc,1,2342,"[(1, 960), (0, 1170)]",960
4423,corsi,simultaneous,test,1,2,"[(-134, 7), (74, -23), (117, 278), (-212, -166)]",cc,1,3013,"[(0, 440), (1, 510)]",440
4423,corsi,simultaneous,test,2,2,"[(212, -254), (-274, 53), (59, 269), (-167, -191)]",cc,1,1772,"[(0, 900), (1, 660)]",900
4423,corsi,simultaneous,test,3,3,"[(-140, 292), (-122, -187), (17, -288), (-81, -60), (244, -219), (298, 270)]",ccc,1,2498,"[(0, 910), (1, 710), (2, 560)]",910
4423,corsi,simultaneous,test,4,3,"[(19, 212), (48, -166), (-262, -116), (208, -16), (260, -189), (-244, 30)]",ccc,1,2518,"[(2, 1050), (1, 630), (0, 520)]",1050
4423,corsi,simultaneous,test,5,3,"[(-185, 20), (219, 240), (20, 215), (25, -167), (-250, 187), (190, 141)]",ccc,1,1968,"[(2, 370), (1, 630), (0, 650)]",370
4423,corsi,simultaneous,test,6,4,"[(-154, -51), (145, 144), (293, -244), (-6, 248), (-264, 153), (-255, -295), (-51, 122), (22, -77)]",cccc,1,3785,"[(0, 810), (3, 710), (1, 620), (2, 451)]",810
4423,corsi,simultaneous,test,7,4,"[(-139, -26), (63, 131), (-163, -273), (152, 165), (-278, 37), (-22, 30), (299, -15), (114, 22)]",cccc,1,3354,"[(0, 690), (2, 480), (1, 860), (3, 340)]",690
4423,corsi,simultaneous,test,8,4,"[(-221, -190), (-228, -260), (71, -233), (-193, -95), (-60, -228), (234, -97), (287, -4), (191, 204)]",cccc,1,2734,"[(3, 810), (0, 300), (1, 300), (2, 470)]",810
4423,corsi,simultaneous,test,9,5,"[(-87, -8), (137, 236), (41, 279), (177, 47), (-274, 74), (193, -221), (-165, -51), (115, 141), (-2, -104), (-274, -174)]",ccccc,1,3197,"[(4, 880), (0, 480), (3, 430), (1, 470), (2, 410)]",880
4423,corsi,simultaneous,test,10,5,"[(-106, 180), (83, -239), (124, -167), (248, 97), (152, 229), (-190, -248), (2, -37), (-50, -190), (-184, 13), (216, -139)]",ccccc,1,3290,"[(0, 1060), (4, 390), (3, 380), (2, 600), (1, 330)]",1060
4423,corsi,simultaneous,test,11,5,"[(-175, 173), (-285, -16), (-63, 233), (22, -298), (57, -156), (92, 107), (202, -232), (-252, 118), (-153, -182), (214, 123)]",ccccc,1,3531,"[(2, 881), (0, 460), (1, 450), (4, 590), (3, 620)]",881
4423,corsi,simultaneous,test,12,6,"[(-159, 105), (238, 16), (-231, 219), (39, -80), (-56, -125), (-14, -298), (73, 31), (-136, 180), (243, -71), (-46, 225), (-251, -200), (98, 240)]",cccccc,1,3797,"[(2, 1120), (0, 320), (1, 480), (3, 410), (4, 440), (5, 390)]",1120
4423,corsi,simultaneous,test,13,6,"[(-161, -218), (22, 270), (-152, 132), (-64, -96), (124, -224), (-255, 231), (131, -126), (275, 250), (-18, -167), (-250, 161), (-9, 41), (131, 273)]",cccccc,0,5937,"[(3, 970), (2, 470), (1, 621), (5, 520), (0, 470), (6, 2250)]",970
4423,corsi,simultaneous,test,14,6,"[(172, 284), (-139, 77), (-89, -61), (-36, -191), (297, 53), (174, -254), (-37, -271), (50, -134), (298, 279), (63, 224), (-276, -128), (168, -6)]",cccccc,1,3407,"[(1, 651), (2, 350), (3, 360), (0, 620), (4, 370), (5, 420)]",651
4423,corsi,simultaneous,test,15,7,"[(-231, 39), (218, -88), (-293, -156), (-224, -255), (110, 37), (-96, 182), (-99, -237), (154, -211), (169, 194), (74, 256), (14, -236), (-134, 270), (184, 55), (-92, 106)]",ccccccc,1,6604,"[(5, 951), (0, 520), (4, 500), (1, 480), (2, 510), (6, 520), (3, 2380)]",951
4423,corsi,simultaneous,test,16,7,"[(-242, -57), (199, 214), (18, 34), (243, -82), (-100, 230), (-247, 69), (127, -4), (-98, -65), (143, -253), (-44, -232), (-226, -146), (46, -64), (-19, 214), (-206, -222)]",ccccccc,0,5992,"[(4, 920), (5, 380), (1, 620), (2, 440), (6, 370), (3, 370), (11, 420)]",920
4423,corsi,simultaneous,test,17,7,"[(-6, 15), (148, -42), (23, 175), (-78, -150), (217, -204), (193, 73), (-299, 173), (288, -80), (23, 285), (-139, -266), (-232, -148), (-270, -34), (-161, 235), (5, -153)]",ccccccc,0,6193,"[(6, 1120), (5, 710), (0, 410), (3, 410), (1, 670), (4, 310), (12, 1050)]",1120
4423,corsi,simultaneous,test,18,8,"[(276, 207), (-59, 54), (-147, -109), (-144, 182), (75, -261), (269, -198), (78, -70), (188, 117), (-90, 274), (-281, 130), (243, 287), (218, -126), (-166, -28), (4, 215), (-144, 53), (-231, -216)]",cccccccc,1,5018,"[(3, 990), (1, 380), (6, 460), (5, 420), (0, 471), (7, 490), (2, 510), (4, 450)]",990
4423,corsi,simultaneous,test,19,8,"[(-183, 250), (-96, -290), (-239, -63), (250, -171), (70, -98), (-245, 158), (-195, 75), (168, 159), (167, -215), (-53, 19), (-151, 166), (53, 244), (-40, 119), (142, -130), (-152, -218), (-254, -159)]",cccccccc,0,3365,"[(0, 1000), (5, 400), (6, 710), (15, 350)]",1000
4423,corsi,simultaneous,test,20,8,"[(-87, 168), (194, 266), (-18, -46), (-209, -258), (-31, -126), (91, -166), (212, -188), (-265, 250), (-138, -43), (-276, -41), (175, -42), (56, -29), (-236, 112), (210, -112), (130, -300), (-156, 282)]",cccccccc,0,5620,"[(7, 1160), (0, 620), (2, 420), (4, 320), (3, 401), (1, 760), (5, 620), (14, 470)]",1160
4423,corsi,simultaneous,test,21,9,"[(23, -5), (265, 88), (-201, -150), (-66, 19), (-199, -225), (210, -74), (-258, 293), (52, 111), (-289, -263), (241, 234), (215, -207), (-265, 103), (20, 272), (-189, -13), (159, 72), (-114, -159), (104, 198), (-177, 61)]",ccccccccc,0,4629,"[(1, 840), (5, 410), (7, 630), (0, 300), (6, 350), (8, 580), (4, 320), (15, 350)]",840
4423,corsi,simultaneous,test,22,9,"[(-14, 262), (61, -121), (-220, 65), (132, 156), (184, 292), (258, 114), (33, -50), (247, 221), (261, -217), (115, 3), (-229, -103), (44, 177), (43, -256), (-197, -14), (184, -215), (-132, -145), (-291, 134), (-99, 265)]",ccccccccc,0,6206,"[(2, 790), (6, 500), (1, 300), (8, 610), (7, 620), (4, 260), (5, 370), (3, 320), (11, 1480)]",790
4423,corsi,simultaneous,test,23,9,"[(-69, -172), (-116, 277), (-210, 136), (163, -293), (-205, 59), (298, 150), (259, -106), (-106, -269), (46, 121), (34, 42), (-35, 293), (139, 264), (-287, 243), (97, -167), (-63, 159), (-96, -89), (279, 283), (206, -222)]",ccccccccc,0,4516,"[(1, 1000), (2, 650), (4, 330), (8, 610), (5, 630), (17, 660)]",1000
4423,corsi,forward,practice,0,2,"[(22, -157), (223, -87), (-19, 229), (-248, 280)]",cc,1,4524,"[(0, 630), (1, 1880)]",630
4423,corsi,forward,test,0,2,"[(-217, -104), (-214, 227), (-54, 123), (-52, 204)]",cc,1,2192,"[(0, 980), (1, 450)]",980
4423,corsi,forward,test,1,2,"[(-243, 262), (102, 18), (-179, -182), (252, -188)]",cc,1,1843,"[(0, 950), (1, 681)]",950
4423,corsi,forward,test,2,2,"[(-130, -36), (202, -240), (247, 121), (-185, 238)]",cc,1,1642,"[(0, 570), (1, 860)]",570
4423,corsi,forward,test,3,3,"[(-203, 180), (24, -213), (199, -196), (247, 253), (-104, 87), (-182, -96)]",ccc,1,3059,"[(0, 1251), (1, 980), (2, 510)]",1251
4423,corsi,forward,test,4,3,"[(-259, 243), (136, 116), (-77, -137), (-45, 183), (-213, -271), (-109, -238)]",ccc,1,2738,"[(0, 940), (1, 630), (2, 850)]",940
4423,corsi,forward,test,5,3,"[(29, -275), (-243, -2), (254, 275), (-100, 168), (3, -33), (-243, -191)]",ccc,1,2968,"[(0, 990), (1, 840), (2, 820)]",990
4423,corsi,forward,test,6,4,"[(-36, -257), (-129, -94), (-128, 254), (-79, -17), (141, 297), (-131, -253), (-210, 37), (-235, -55)]",cccc,1,3622,"[(0, 400), (1, 410), (2, 570), (3, 931)]",400
4423,corsi,forward,test,7,4,"[(-218, -129), (-72, -41), (276, 285), (102, -163), (-186, 26), (-260, 138), (106, -34), (-181, 147)]",cccc,1,3174,"[(0, 860), (1, 480), (2, 760), (3, 650)]",860
4423,corsi,forward,test,8,4,"[(-83, 98), (-175, 105), (158, -199), (14, -32), (263, -80), (265, 227), (-15, -235), (261, 93)]",cccc,1,3285,"[(0, 970), (1, 710), (2, 600), (3, 580)]",970
4423,corsi,forward,test,9,5,"[(211, -69), (-16, 194), (290, -229), (-237, -80), (-168, 30), (128, -253), (-159, -226), (-28, -24), (84, -88), (208, 156)]",ccccc,0,4525,"[(0, 1871), (1, 350), (2, 1020), (5, 400)]",1871
4423,corsi,forward,test,10,5,"[(43, -237), (-207, -84), (14, 201), (-56, -26), (264, -291), (235, 150), (-107, -246), (44, 120), (94, -136), (-287, 211)]",ccccc,1,3851,"[(0, 730), (1, 560), (2, 610), (3, 560), (4, 861)]",730
4423,corsi,forward,test,11,5,"[(212, -65), (-272, 196), (-190, 278), (70, -86), (60, -247), (134, -240), (-198, -287), (-159, 113), (-6, -49), (-15, -254)]",ccccc,0,1928,"[(0, 570), (1, 660), (7, 380)]",570
4423,corsi,forward,test,12,6,"[(-12, -88), (-121, -220), (246, -157), (164, -286), (-108, 79), (256, 112), (139, 142), (-296, -22), (-4, 15), (189, -79), (-179, -137), (160, 213)]",cccccc,1,3426,"[(0, 550), (1, 450), (2, 630), (3, 280), (4, 470), (5, 410)]",550
4423,corsi,forward,test,13,6,"[(298, 270), (148, 116), (186, -52), (-19, 265), (-215, 5), (254, 145), (56, 17), (-40, -213), (-169, 283), (-76, 45), (-270, -276), (-50, -57)]",cccccc,1,4246,"[(0, 1180), (1, 500), (2, 400), (3, 400), (4, 500), (5, 630)]",1180
4423,corsi,forward,test,14,6,"[(-69, -90), (198, 198), (-281, -94), (33, 6), (121, 202), (-167, -84), (299, 157), (-92, -210), (129, -175), (248, 28), (-146, 162), (-11, 212)]",cccccc,0,3594,"[(0, 810), (1, 780), (2, 750), (4, 830)]",810
4423,corsi,forward,test,15,7,"[(-48, -80), (70, 194), (153, -263), (228, 58), (-265, -269), (-11, 28), (-284, -75), (-262, 17), (-180, -128), (-154, 4), (14, -213), (145, 85), (281, 194), (238, -51)]",ccccccc,0,3266,"[(0, 881), (1, 570), (2, 610), (4, 780)]",881
4423,corsi,forward,test,16,7,"[(-153, -173), (148, -65), (-267, -185), (-127, 166), (219, 105), (-99, -11), (-272, 2), (-183, 242), (-160, 71), (224, 227), (178, 22), (130, 137), (-61, 95), (-43, -135)]",ccccccc,0,937,"[(2, 830)]",830
4423,corsi,forward,test,17,7,"[(215, -35), (-177, -108), (-72, -76), (225, 256), (-84, -187), (116, -273), (73, 61), (-281, 252), (-277, -164), (-300, 103), (-266, -2), (-150, 200), (247, -152), (-182, 99)]",ccccccc,0,6507,"[(0, 770), (1, 760), (2, 620), (3, 1310), (4, 1250), (6, 310)]",770
4423,corsi,sequence,practice,0,2,"[(109, -63), (-79, 30), (61, 222), (294, 67)]",cx,1,4204,"[(0, 1390), (1, 800)]",1390
4423,corsi,sequence,practice,1,2,"[(-299, 147), (263, 110), (149, -280), (69, -274)]",xc,1,3104,"[(1, 1040), (0, 50)]",1040
4423,corsi,sequence,practice,2,3,"[(-243, -75), (249, 194), (-245, 237), (-153, 99), (206, 105), (231, -184)]",xcc,1,5401,"[(1, 1370), (2, 330), (0, 120)]",1370
4423,corsi,sequence,practice,3,3,"[(-87, 85), (-101, -204), (52, -69), (-177, -2), (3, -150), (-71, 177)]",cxc,1,5271,"[(0, 720), (2, 710), (1, 820)]",720
4423,corsi,sequence,test,0,2,"[(20, 205), (-110, -74), (-260, -54), (-297, 83)]",cx,1,1842,"[(0, 980), (1, 650)]",980
4423,corsi,sequence,test,1,2,"[(-151, -103), (-216, 77), (85, -284), (264, 73)]",cx,1,1532,"[(0, 670), (1, 650)]",670
4423,corsi,sequence,test,2,2,"[(-132, 279), (232, 79), (272, -77), (-295, -138)]",cx,0,1016,"[(2, 910)]",910
4423,corsi,sequence,test,3,3,"[(296, 140), (158, 54), (178, 127), (53, 156), (-79, -19), (218, -148)]",xcx,0,1206,"[(5, 270)]",270
4423,corsi,sequence,test,4,3,"[(-247, -229), (-222, -54), (-123, -98), (58, 248), (203, -6), (60, -51)]",cxx,1,2128,"[(0, 890), (1, 570), (2, 350)]",890
4423,corsi,sequence,test,5,3,"[(250, -55), (228, -137), (-8, -166), (75, 208), (-20, 117), (-208, -43)]",cxx,1,1939,"[(0, 671), (1, 470), (2, 480)]",671
4423,corsi,sequence,test,6,4,"[(103, 51), (22, -61), (141, 170), (-69, -63), (110, -274), (87, 275), (-89, 202), (-158, 72)]",cxxc,0,806,"[(3, 700)]",700
4423,corsi,sequence,test,7,4,"[(19, -100), (78, 196), (257, -203), (-289, -160), (231, -105), (100, -75), (-160, -155), (-142, 139)]",cxcx,1,3554,"[(0, 890), (2, 830), (1, 680), (3, 730)]",890
4423,corsi,sequence,test,8,4,"[(-61, -184), (-78, 24), (286, 182), (81, -121), (-252, -11), (-293, 262), (-57, 251), (255, 262)]",cxcx,1,3555,"[(0, 860), (2, 801), (1, 710), (3, 760)]",860
4423,corsi,sequence,test,9,5,"[(62, -65), (-119, -104), (-212, 105), (-103, 123), (140, -11), (61, 208), (96, -144), (276, 185), (185, -257), (21, -160)]",cxxcc,1,3320,"[(0, 750), (3, 440), (4, 500), (1, 680), (2, 420)]",750
4423,corsi,sequence,test,10,5,"[(239, 79), (140, -16), (-254, -54), (253, -36), (-140, -83), (-113, -245), (-291, 101), (204, -290), (-206, 157), (48, 7)]",cxcxx,1,3370,"[(0, 760), (2, 610), (1, 600), (3, 330), (4, 540)]",760
4423,corsi,sequence,test,11,5,"[(34, 233), (-51, -259), (-268, 137), (-189, -237), (168, -102), (-65, 225), (-226, -94), (-158, 103), (170, 5), (296, -263)]",xxccx,0,3744,"[(2, 820), (3, 470), (0, 480), (6, 510)]",820
4423,corsi,sequence,test,12,6,"[(-214, -130), (214, 122), (110, -96), (-255, -7), (49, 99), (72, -199), (-74, 114), (200, -290), (-285, 124), (-226, 246), (102, 222), (-6, -13)]",xccxcx,0,2855,"[(1, 1180), (2, 470), (4, 350), (3, 430)]",1180
4423,corsi,sequence,test,13,6,"[(-142, -158), (249, -52), (-57, 248), (-87, 4), (37, 237), (114, 170), (115, -80), (-84, 162), (-235, 238), (216, 56), (223, 239), (13, 33)]",cxcxxc,0,1066,"[(8, 960)]",960
4423,corsi,sequence,test,14,6,"[(-6, 86), (241, -210), (57, -104), (-193, 265), (125, 47), (41, 199), (-284, 236), (175, 227), (146, 133), (216, 118), (48, 290), (-183, -208)]",ccxxxc,0,3976,"[(0, 740), (1, 530), (5, 760), (4, 710)]",740
4433,corsi,simultaneous,practice,0,2,"[(-194, -114), (255, -160), (-285, 153), (-269, -186)]",cc,1,8875,"[(0, 5100), (1, 1770)]",5100
4433,corsi,simultaneous,test,0,2,"[(153, -282), (-201, 292), (141, -30), (-130, -168)]",cc,1,3704,"[(1, 1850), (0, 1650)]",1850
4433,corsi,simultaneous,test,1,2,"[(-134, 7), (74, -23), (117, 278), (-212, -166)]",cc,1,3745,"[(0, 1621), (1, 1920)]",1621
4433,corsi,simultaneous,test,2,2,"[(212, -254), (-274, 53), (59, 269), (-167, -191)]",cc,1,3924,"[(1, 1240), (0, 2480)]",1240
4433,corsi,simultaneous,test,3,3,"[(-140, 292), (-122, -187), (17, -288), (-81, -60), (244, -219), (298, 270)]",ccc,0,3905,"[(0, 2020), (3, 1681)]",2020
4433,corsi,simultaneous,test,4,3,"[(19, 212), (48, -166), (-262, -116), (208, -16), (260, -189), (-244, 30)]",ccc,0,5386,"[(2, 1760), (0, 1190), (3, 1000)]",1760
4433,corsi,simultaneous,test,5,3,"[(-185, 20), (219, 240), (20, 215), (25, -167), (-250, 187), (190, 141)]",ccc,1,7757,"[(2, 2991), (0, 2370), (1, 2090)]",2991
4433,corsi,simultaneous,test,6,4,"[(-154, -51), (145, 144), (293, -244), (-6, 248), (-264, 153), (-255, -295), (-51, 122), (22, -77)]",cccc,0,2372,"[(6, 2270)]",2270
4433,corsi,simultaneous,test,7,4,"[(-139, -26), (63, 131), (-163, -273), (152, 165), (-278, 37), (-22, 30), (299, -15), (114, 22)]",cccc,0,5437,"[(2, 2661), (0, 910), (5, 1560)]",2661
4433,corsi,simultaneous,test,8,4,"[(-221, -190), (-228, -260), (71, -233), (-193, -95), (-60, -228), (234, -97), (287, -4), (191, 204)]",cccc,1,5308,"[(3, 2240), (0, 890), (1, 650), (2, 1120)]",2240
4433,corsi,simultaneous,test,9,5,"[(-87, -8), (137, 236), (41, 279), (177, 47), (-274, 74), (193, -221), (-165, -51), (115, 141), (-2, -104), (-274, -174)]",ccccc,0,18170,"[(1, 2631), (2, 1370), (4, 1480), (6, 12280)]",2631
4433,corsi,simultaneous,test,10,5,"[(-106, 180), (83, -239), (124, -167), (248, 97), (152, 229), (-190, -248), (2, -37), (-50, -190), (-184, 13), (216, -139)]",ccccc,0,12180,"[(1, 1920), (2, 2010), (3, 1770), (4, 1380), (9, 870)]",1920
4433,corsi,simultaneous,test,11,5,"[(-175, 173), (-285, -16), (-63, 233), (22, -298), (57, -156), (92, 107), (202, -232), (-252, 118), (-153, -182), (214, 123)]",ccccc,0,4264,"[(1, 2400), (7, 1660)]",2400
4433,corsi,forward,practice,0,2,"[(22, -157), (223, -87), (-19, 229), (-248, 280)]",cc,1,8845,"[(0, 6730), (1, 110)]",6730
4433,corsi,forward,test,0,2,"[(-217, -104), (-214, 227), (-54, 123), (-52, 204)]",cc,1,4334,"[(0, 3280), (1, 850)]",3280
4433,corsi,forward,test,1,2,"[(-243, 262), (102, 18), (-179, -182), (252, -188)]",cc,1,2824,"[(0, 1850), (1, 770)]",1850
4433,corsi,forward,test,2,2,"[(-130, -36), (202, -240), (247, 121), (-185, 238)]",cc,1,3544,"[(0, 1240), (1, 850)]",1240
4433,corsi,forward,test,3,3,"[(-203, 180), (24, -213), (199, -196), (247, 253), (-104, 87), (-182, -96)]",ccc,1,5707,"[(0, 2510), (1, 1841), (2, 1050)]",2510
4433,corsi,forward,test,4,3,"[(-259, 243), (136, 116), (-77, -137), (-45, 183), (-213, -271), (-109, -238)]",ccc,1,5616,"[(0, 2440), (1, 1240), (2, 1630)]",2440
4433,corsi,forward,test,5,3,"[(29, -275), (-243, -2), (254, 275), (-100, 168), (3, -33), (-243, -191)]",ccc,1,5516,"[(0, 1810), (1, 1640), (2, 1760)]",1810
4433,corsi,forward,test,6,4,"[(-36, -257), (-129, -94), (-128, 254), (-79, -17), (141, 297), (-131, -253), (-210, 37), (-235, -55)]",cccc,1,8568,"[(0, 2010), (1, 1930), (2, 1730), (3, 860)]",2010
4433,corsi,forward,test,7,4,"[(-218, -129), (-72, -41), (276, 285), (102, -163), (-186, 26), (-260, 138), (106, -34), (-181, 147)]",cccc,1,10268,"[(0, 1600), (1, 960), (2, 5490), (3, 590)]",1600
4433,corsi,forward,test,8,4,"[(-83, 98), (-175, 105), (158, -199), (14, -32), (263, -80), (265, 227), (-15, -235), (261, 93)]",cccc,1,8618,"[(0, 2130), (1, 1380), (2, 2830), (3, 1870)]",2130
4433,corsi,forward,test,9,5,"[(211, -69), (-16, 194), (290, -229), (-237, -80), (-168, 30), (128, -253), (-159, -226), (-28, -24), (84, -88), (208, 156)]",ccccc,0,2602,"[(1, 2500)]",2500
4433,corsi,forward,test,10,5,"[(43, -237), (-207, -84), (14, 201), (-56, -26), (264, -291), (235, 150), (-107, -246), (44, 120), (94, -136), (-287, 211)]",ccccc,0,1832,"[(2, 1730)]",1730
4433,corsi,forward,test,11,5,"[(212, -65), (-272, 196), (-190, 278), (70, -86), (60, -247), (134, -240), (-198, -287), (-159, 113), (-6, -49), (-15, -254)]",ccccc,0,6208,"[(0, 1610), (1, 2180), (2, 930), (7, 1080)]",1610
4433,corsi,sequence,practice,0,2,"[(109, -63), (-79, 30), (61, 222), (294, 67)]",cx,1,5876,"[(0, 2650), (1, 1220)]",2650
4433,corsi,sequence,practice,1,2,"[(-299, 147), (263, 110), (149, -280), (69, -274)]",xc,0,2732,"[(0, 1730)]",1730
4433,corsi,sequence,practice,2,3,"[(-243, -75), (249, 194), (-245, 237), (-153, 99), (206, 105), (231, -184)]",xcc,0,8015,"[(1, 2571), (4, 1600)]",2571
4433,corsi,sequence,practice,3,3,"[(-87, 85), (-101, -204), (52, -69), (-177, -2), (3, -150), (-71, 177)]",cxc,0,4555,"[(0, 1590), (1, 961)]",1590
4433,corsi,sequence,test,0,2,"[(20, 205), (-110, -74), (-260, -54), (-297, 83)]",cx,1,3494,"[(0, 2080), (1, 1210)]",2080
4433,corsi,sequence,test,1,2,"[(-151, -103), (-216, 77), (85, -284), (264, 73)]",cx,1,2484,"[(0, 1510), (1, 770)]",1510
4433,corsi,sequence,test,2,2,"[(-132, 279), (232, 79), (272, -77), (-295, -138)]",cx,1,3324,"[(0, 2050), (1, 1070)]",2050
4433,corsi,sequence,test,3,3,"[(296, 140), (158, 54), (178, 127), (53, 156), (-79, -19), (218, -148)]",xcx,0,4244,"[(1, 2640), (2, 1400)]",2640
4433,corsi,sequence,test,4,3,"[(-247, -229), (-222, -54), (-123, -98), (58, 248), (203, -6), (60, -51)]",cxx,1,6267,"[(0, 3491), (1, 980), (2, 1490)]",3491
4433,corsi,sequence,test,5,3,"[(250, -55), (228, -137), (-8, -166), (75, 208), (-20, 117), (-208, -43)]",cxx,0,9713,"[(1, 9611)]",9611
4433,corsi,sequence,test,6,4,"[(103, 51), (22, -61), (141, 170), (-69, -63), (110, -274), (87, 275), (-89, 202), (-158, 72)]",cxxc,1,5969,"[(0, 1920), (3, 1860), (1, 700), (2, 1081)]",1920
4433,corsi,sequence,test,7,4,"[(19, -100), (78, 196), (257, -203), (-289, -160), (231, -105), (100, -75), (-160, -155), (-142, 139)]",cxcx,1,6988,"[(0, 1790), (2, 1690), (1, 1430), (3, 1670)]",1790
4433,corsi,sequence,test,8,4,"[(-61, -184), (-78, 24), (286, 182), (81, -121), (-252, -11), (-293, 262), (-57, 251), (255, 262)]",cxcx,0,6316,"[(0, 880), (2, 1660), (3, 1780)]",880
4433,corsi,sequence,test,9,5,"[(62, -65), (-119, -104), (-212, 105), (-103, 123), (140, -11), (61, 208), (96, -144), (276, 185), (185, -257), (21, -160)]",cxxcc,0,2574,"[(0, 1640), (4, 730)]",1640
4433,corsi,sequence,test,10,5,"[(239, 79), (140, -16), (-254, -54), (253, -36), (-140, -83), (-113, -245), (-291, 101), (204, -290), (-206, 157), (48, 7)]",cxcxx,0,1273,"[(9, 1171)]",1171
4433,corsi,sequence,test,11,5,"[(34, 233), (-51, -259), (-268, 137), (-189, -237), (168, -102), (-65, 225), (-226, -94), (-158, 103), (170, 5), (296, -263)]",xxccx,0,1542,"[(3, 1440)]",1440
4441,corsi,simultaneous,practice,0,2,"[(-194, -114), (255, -160), (-285, 153), (-269, -186)]",cc,1,4374,"[(0, 2230), (1, 130)]",2230
4441,corsi,simultaneous,test,0,2,"[(153, -282), (-201, 292), (141, -30), (-130, -168)]",cc,0,7765,"[(3, 7660)]",7660
4441,corsi,simultaneous,test,1,2,"[(-134, 7), (74, -23), (117, 278), (-212, -166)]",cc,1,3041,"[(0, 2070), (1, 760)]",2070
4441,corsi,simultaneous,test,2,2,"[(212, -254), (-274, 53), (59, 269), (-167, -191)]",cc,1,3352,"[(1, 1950), (0, 1190)]",1950
4441,corsi,simultaneous,test,3,3,"[(-140, 292), (-122, -187), (17, -288), (-81, -60), (244, -219), (298, 270)]",ccc,1,4478,"[(2, 1480), (1, 660), (0, 2020)]",1480
4441,corsi,simultaneous,test,4,3,"[(19, 212), (48, -166), (-262, -116), (208, -16), (260, -189), (-244, 30)]",ccc,1,3988,"[(2, 710), (1, 990), (0, 1170)]",710
4441,corsi,simultaneous,test,5,3,"[(-185, 20), (219, 240), (20, 215), (25, -167), (-250, 187), (190, 141)]",ccc,1,3257,"[(0, 1110), (2, 980), (1, 850)]",1110
4441,corsi,simultaneous,test,6,4,"[(-154, -51), (145, 144), (293, -244), (-6, 248), (-264, 153), (-255, -295), (-51, 122), (22, -77)]",cccc,1,4615,"[(2, 1461), (0, 910), (3, 1070), (1, 750)]",1461
4441,corsi,simultaneous,test,7,4,"[(-139, -26), (63, 131), (-163, -273), (152, 165), (-278, 37), (-22, 30), (299, -15), (114, 22)]",cccc,1,3972,"[(2, 1430), (0, 820), (1, 780), (3, 520)]",1430
4441,corsi,simultaneous,test,8,4,"[(-221, -190), (-228, -260), (71, -233), (-193, -95), (-60, -228), (234, -97), (287, -4), (191, 204)]",cccc,1,3774,"[(1, 1381), (0, 430), (3, 860), (2, 680)]",1381
4441,corsi,simultaneous,test,9,5,"[(-87, -8), (137, 236), (41, 279), (177, 47), (-274, 74), (193, -221), (-165, -51), (115, 141), (-2, -104), (-274, -174)]",ccccc,1,5149,"[(4, 1890), (0, 690), (3, 780), (1, 580), (2, 680)]",1890
4441,corsi,simultaneous,test,10,5,"[(-106, 180), (83, -239), (124, -167), (248, 97), (152, 229), (-190, -248), (2, -37), (-50, -190), (-184, 13), (216, -139)]",ccccc,1,5801,"[(1, 1011), (2, 680), (3, 1170), (4, 470), (0, 810)]",1011
4441,corsi,simultaneous,test,11,5,"[(-175, 173), (-285, -16), (-63, 233), (22, -298), (57, -156), (92, 107), (202, -232), (-252, 118), (-153, -182), (214, 123)]",ccccc,1,5109,"[(3, 1290), (4, 540), (1, 1580), (0, 420), (2, 750)]",1290
4441,corsi,simultaneous,test,12,6,"[(-159, 105), (238, 16), (-231, 219), (39, -80), (-56, -125), (-14, -298), (73, 31), (-136, 180), (243, -71), (-46, 225), (-251, -200), (98, 240)]",cccccc,1,7665,"[(5, 1380), (4, 670), (3, 430), (2, 1020), (1, 1310), (0, 430)]",1380
4441,corsi,simultaneous,test,13,6,"[(-161, -218), (22, 270), (-152, 132), (-64, -96), (124, -224), (-255, 231), (131, -126), (275, 250), (-18, -167), (-250, 161), (-9, 41), (131, 273)]",cccccc,0,3154,"[(4, 1050), (0, 830), (3, 390), (8, 460)]",1050
4441,corsi,simultaneous,test,14,6,"[(172, 284), (-139, 77), (-89, -61), (-36, -191), (297, 53), (174, -254), (-37, -271), (50, -134), (298, 279), (63, 224), (-276, -128), (168, -6)]",cccccc,0,2732,"[(5, 1350), (7, 1170)]",1350
4441,corsi,simultaneous,test,15,7,"[(-231, 39), (218, -88), (-293, -156), (-224, -255), (110, 37), (-96, 182), (-99, -237), (154, -211), (169, 194), (74, 256), (14, -236), (-134, 270), (184, 55), (-92, 106)]",ccccccc,0,7942,"[(6, 1820), (3, 1010), (2, 780), (0, 880), (5, 830), (4, 981), (12, 900)]",1820
4441,corsi,simultaneous,test,16,7,"[(-242, -57), (199, 214), (18, 34), (243, -82), (-100, 230), (-247, 69), (127, -4), (-98, -65), (143, -253), (-44, -232), (-226, -146), (46, -64), (-19, 214), (-206, -222)]",ccccccc,0,6106,"[(0, 1050), (5, 730), (2, 650), (6, 450), (3, 610), (12, 1110)]",1050
4441,corsi,simultaneous,test,17,7,"[(-6, 15), (148, -42), (23, 175), (-78, -150), (217, -204), (193, 73), (-299, 173), (288, -80), (23, 285), (-139, -266), (-232, -148), (-270, -34), (-161, 235), (5, -153)]",ccccccc,0,4486,"[(3, 970), (0, 461), (1, 640), (3, 1990)]",970
4441,corsi,forward,practice,0,2,"[(22, -157), (223, -87), (-19, 229), (-248, 280)]",cc,1,2975,"[(0, 820), (1, 140)]",820
4441,corsi,forward,test,0,2,"[(-217, -104), (-214, 227), (-54, 123), (-52, 204)]",cc,1,2162,"[(0, 900), (1, 1050)]",900
4441,corsi,forward,test,1,2,"[(-243, 262), (102, 18), (-179, -182), (252, -188)]",cc,1,3561,"[(0, 1720), (1, 1630)]",1720
4441,corsi,forward,test,2,2,"[(-130, -36), (202, -240), (247, 121), (-185, 238)]",cc,1,3202,"[(0, 1800), (1, 1190)]",1800
4441,corsi,forward,test,3,3,"[(-203, 180), (24, -213), (199, -196), (247, 253), (-104, 87), (-182, -96)]",ccc,0,2355,"[(4, 2250)]",2250
4441,corsi,forward,test,4,3,"[(-259, 243), (136, 116), (-77, -137), (-45, 183), (-213, -271), (-109, -238)]",ccc,1,3909,"[(0, 1350), (1, 970), (2, 370)]",1350
4441,corsi,forward,test,5,3,"[(29, -275), (-243, -2), (254, 275), (-100, 168), (3, -33), (-243, -191)]",ccc,1,3998,"[(0, 1420), (1, 880), (2, 1380)]",1420
4441,corsi,forward,test,6,4,"[(-36, -257), (-129, -94), (-128, 254), (-79, -17), (141, 297), (-131, -253), (-210, 37), (-235, -55)]",cccc,0,2372,"[(0, 1710), (3, 450)]",1710
4441,corsi,forward,test,7,4,"[(-218, -129), (-72, -41), (276, 285), (102, -163), (-186, 26), (-260, 138), (106, -34), (-181, 147)]",cccc,0,3047,"[(1, 1301)]",1301
4441,corsi,forward,test,8,4,"[(-83, 98), (-175, 105), (158, -199), (14, -32), (263, -80), (265, 227), (-15, -235), (261, 93)]",cccc,0,1126,"[(3, 1020)]",1020
4441,corsi,sequence,practice,0,2,"[(109, -63), (-79, 30), (61, 222), (294, 67)]",cx,1,7085,"[(0, 2111), (1, 890)]",2111
4441,corsi,sequence,practice,1,2,"[(-299, 147), (263, 110), (149, -280), (69, -274)]",xc,1,3624,"[(1, 1130), (0, 480)]",1130
4441,corsi,sequence,practice,2,3,"[(-243, -75), (249, 194), (-245, 237), (-153, 99), (206, 105), (231, -184)]",xcc,1,5051,"[(1, 690), (2, 640), (0, 700)]",690
4441,corsi,sequence,practice,3,3,"[(-87, 85), (-101, -204), (52, -69), (-177, -2), (3, -150), (-71, 177)]",cxc,1,4842,"[(0, 1171), (2, 360), (1, 290)]",1171
4441,corsi,sequence,test,0,2,"[(20, 205), (-110, -74), (-260, -54), (-297, 83)]",cx,1,2151,"[(0, 830), (1, 1110)]",830
4441,corsi,sequence,test,1,2,"[(-151, -103), (-216, 77), (85, -284), (264, 73)]",cx,1,1591,"[(0, 780), (1, 600)]",780
4441,corsi,sequence,test,2,2,"[(-132, 279), (232, 79), (272, -77), (-295, -138)]",cx,1,3312,"[(0, 1740), (1, 400)]",1740
4441,corsi,sequence,test,3,3,"[(296, 140), (158, 54), (178, 127), (53, 156), (-79, -19), (218, -148)]",xcx,1,2807,"[(1, 1030), (0, 871), (2, 590)]",1030
4441,corsi,sequence,test,4,3,"[(-247, -229), (-222, -54), (-123, -98), (58, 248), (203, -6), (60, -51)]",cxx,1,2659,"[(0, 981), (1, 670), (2, 690)]",981
4441,corsi,sequence,test,5,3,"[(250, -55), (228, -137), (-8, -166), (75, 208), (-20, 117), (-208, -43)]",cxx,1,4027,"[(0, 1650), (1, 850), (2, 1210)]",1650
4441,corsi,sequence,test,6,4,"[(103, 51), (22, -61), (141, 170), (-69, -63), (110, -274), (87, 275), (-89, 202), (-158, 72)]",cxxc,1,3684,"[(0, 1200), (3, 700), (1, 510), (2, 850)]",1200
4441,corsi,sequence,test,7,4,"[(19, -100), (78, 196), (257, -203), (-289, -160), (231, -105), (100, -75), (-160, -155), (-142, 139)]",cxcx,1,4695,"[(0, 961), (2, 960), (1, 940), (3, 1410)]",961
4441,corsi,sequence,test,8,4,"[(-61, -184), (-78, 24), (286, 182), (81, -121), (-252, -11), (-293, 262), (-57, 251), (255, 262)]",cxcx,1,4434,"[(0, 1130), (2, 870), (1, 1060), (3, 951)]",1130
4441,corsi,sequence,test,9,5,"[(62, -65), (-119, -104), (-212, 105), (-103, 123), (140, -11), (61, 208), (96, -144), (276, 185), (185, -257), (21, -160)]",cxxcc,0,1941,"[(0, 1370), (4, 360)]",1370
4441,corsi,sequence,test,10,5,"[(239, 79), (140, -16), (-254, -54), (253, -36), (-140, -83), (-113, -245), (-291, 101), (204, -290), (-206, 157), (48, 7)]",cxcxx,0,1256,"[(9, 1150)]",1150
4441,corsi,sequence,test,11,5,"[(34, 233), (-51, -259), (-268, 137), (-189, -237), (168, -102), (-65, 225), (-226, -94), (-158, 103), (170, 5), (296, -263)]",xxccx,0,3329,"[(2, 1320), (3, 1141), (1, 550)]",1320
4443,corsi,simultaneous,practice,0,2,"[(-194, -114), (255, -160), (-285, 153), (-269, -186)]",cc,1,3776,"[(0, 810), (1, 950)]",810
4443,corsi,simultaneous,test,0,2,"[(153, -282), (-201, 292), (141, -30), (-130, -168)]",cc,1,1972,"[(0, 950), (1, 810)]",950
4443,corsi,simultaneous,test,1,2,"[(-134, 7), (74, -23), (117, 278), (-212, -166)]",cc,1,1373,"[(0, 750), (1, 411)]",750
4443,corsi,simultaneous,test,2,2,"[(212, -254), (-274, 53), (59, 269), (-167, -191)]",cc,1,1743,"[(1, 610), (0, 330)]",610
4443,corsi,simultaneous,test,3,3,"[(-140, 292), (-122, -187), (17, -288), (-81, -60), (244, -219), (298, 270)]",ccc,1,2659,"[(2, 810), (1, 590), (0, 940)]",810
4443,corsi,simultaneous,test,4,3,"[(19, 212), (48, -166), (-262, -116), (208, -16), (260, -189), (-244, 30)]",ccc,1,2108,"[(2, 831), (1, 450), (0, 510)]",831
4443,corsi,simultaneous,test,5,3,"[(-185, 20), (219, 240), (20, 215), (25, -167), (-250, 187), (190, 141)]",ccc,1,2809,"[(0, 1150), (2, 480), (1, 430)]",1150
4443,corsi,simultaneous,test,6,4,"[(-154, -51), (145, 144), (293, -244), (-6, 248), (-264, 153), (-255, -295), (-51, 122), (22, -77)]",cccc,1,3393,"[(2, 990), (0, 550), (3, 900), (1, 530)]",990
4443,corsi,simultaneous,test,7,4,"[(-139, -26), (63, 131), (-163, -273), (152, 165), (-278, 37), (-22, 30), (299, -15), (114, 22)]",cccc,1,3274,"[(2, 420), (0, 591), (1, 500), (3, 620)]",420
4443,corsi,simultaneous,test,8,4,"[(-221, -190), (-228, -260), (71, -233), (-193, -95), (-60, -228), (234, -97), (287, -4), (191, 204)]",cccc,1,2694,"[(1, 1050), (0, 420), (3, 350), (2, 450)]",1050
4443,corsi,simultaneous,test,9,5,"[(-87, -8), (137, 236), (41, 279), (177, 47), (-274, 74), (193, -221), (-165, -51), (115, 141), (-2, -104), (-274, -174)]",ccccc,0,1491,"[(0, 930), (8, 350)]",930
4443,corsi,simultaneous,test,10,5,"[(-106, 180), (83, -239), (124, -167), (248, 97), (152, 229), (-190, -248), (2, -37), (-50, -190), (-184, 13), (216, -139)]",ccccc,1,3049,"[(1, 890), (2, 330), (3, 470), (4, 390), (0, 440)]",890
4443,corsi,simultaneous,test,11,5,"[(-175, 173), (-285, -16), (-63, 233), (22, -298), (57, -156), (92, 107), (202, -232), (-252, 118), (-153, -182), (214, 123)]",ccccc,1,3179,"[(1, 1000), (0, 390), (2, 350), (3, 780), (4, 130)]",1000
4443,corsi,simultaneous,test,12,6,"[(-159, 105), (238, 16), (-231, 219), (39, -80), (-56, -125), (-14, -298), (73, 31), (-136, 180), (243, -71), (-46, 225), (-251, -200), (98, 240)]",cccccc,1,5236,"[(5, 800), (4, 580), (3, 550), (1, 1350), (0, 860), (2, 460)]",800
4443,corsi,simultaneous,test,13,6,"[(-161, -218), (22, 270), (-152, 132), (-64, -96), (124, -224), (-255, 231), (131, -126), (275, 250), (-18, -167), (-250, 161), (-9, 41), (131, 273)]",cccccc,0,7774,"[(0, 680), (3, 500), (4, 640), (9, 4861)]",680
4443,corsi,simultaneous,test,14,6,"[(172, 284), (-139, 77), (-89, -61), (-36, -191), (297, 53), (174, -254), (-37, -271), (50, -134), (298, 279), (63, 224), (-276, -128), (168, -6)]",cccccc,0,7485,"[(5, 1450), (3, 590), (2, 341), (1, 420), (0, 2640), (8, 1410)]",1450
4443,corsi,simultaneous,test,15,7,"[(-231, 39), (218, -88), (-293, -156), (-224, -255), (110, 37), (-96, 182), (-99, -237), (154, -211), (169, 194), (74, 256), (14, -236), (-134, 270), (184, 55), (-92, 106)]",ccccccc,0,4423,"[(3, 1110), (2, 350), (0, 1850), (13, 691)]",1110
4443,corsi,simultaneous,test,16,7,"[(-242, -57), (199, 214), (18, 34), (243, -82), (-100, 230), (-247, 69), (127, -4), (-98, -65), (143, -253), (-44, -232), (-226, -146), (46, -64), (-19, 214), (-206, -222)]",ccccccc,0,18702,"[(3, 920), (6, 370), (2, 350), (5, 460), (4, 480), (1, 480), (13, 14901)]",920
4443,corsi,simultaneous,test,17,7,"[(-6, 15), (148, -42), (23, 175), (-78, -150), (217, -204), (193, 73), (-299, 173), (288, -80), (23, 285), (-139, -266), (-232, -148), (-270, -34), (-161, 235), (5, -153)]",ccccccc,0,7229,"[(1, 1800), (5, 540), (4, 560), (6, 1640), (9, 1110)]",1800
4443,corsi,forward,practice,0,2,"[(22, -157), (223, -87), (-19, 229), (-248, 280)]",cc,1,4685,"[(0, 1590), (1, 1080)]",1590
4443,corsi,forward,test,0,2,"[(-217, -104), (-214, 227), (-54, 123), (-52, 204)]",cc,1,2632,"[(0, 1270), (1, 510)]",1270
4443,corsi,forward,test,1,2,"[(-243, 262), (102, 18), (-179, -182), (252, -188)]",cc,1,1842,"[(0, 1050), (1, 580)]",1050
4443,corsi,forward,test,2,2,"[(-130, -36), (202, -240), (247, 121), (-185, 238)]",cc,1,1543,"[(0, 760), (1, 570)]",760
4443,corsi,forward,test,3,3,"[(-203, 180), (24, -213), (199, -196), (247, 253), (-104, 87), (-182, -96)]",ccc,1,2318,"[(0, 1040), (1, 590), (2, 370)]",1040
4443,corsi,forward,test,4,3,"[(-259, 243), (136, 116), (-77, -137), (-45, 183), (-213, -271), (-109, -238)]",ccc,1,2638,"[(0, 1120), (1, 650), (2, 550)]",1120
4443,corsi,forward,test,5,3,"[(29, -275), (-243, -2), (254, 275), (-100, 168), (3, -33), (-243, -191)]",ccc,1,2377,"[(0, 960), (1, 580), (2, 520)]",960
4443,corsi,forward,test,6,4,"[(-36, -257), (-129, -94), (-128, 254), (-79, -17), (141, 297), (-131, -253), (-210, 37), (-235, -55)]",cccc,1,4871,"[(0, 850), (1, 750), (2, 2270), (3, 580)]",850
4443,corsi,forward,test,7,4,"[(-218, -129), (-72, -41), (276, 285), (102, -163), (-186, 26), (-260, 138), (106, -34), (-181, 147)]",cccc,0,4004,"[(0, 980), (1, 490), (2, 670), (6, 1440)]",980
4443,corsi,forward,test,8,4,"[(-83, 98), (-175, 105), (158, -199), (14, -32), (263, -80), (265, 227), (-15, -235), (261, 93)]",cccc,1,3055,"[(0, 1120), (1, 420), (2, 530), (3, 560)]",1120
4443,corsi,forward,test,9,5,"[(211, -69), (-16, 194), (290, -229), (-237, -80), (-168, 30), (128, -253), (-159, -226), (-28, -24), (84, -88), (208, 156)]",ccccc,0,3273,"[(0, 850), (1, 491), (2, 600), (4, 910)]",850
4443,corsi,forward,test,10,5,"[(43, -237), (-207, -84), (14, 201), (-56, -26), (264, -291), (235, 150), (-107, -246), (44, 120), (94, -136), (-287, 211)]",ccccc,0,3993,"[(0, 1360), (1, 750), (2, 560), (7, 290)]",1360
4443,corsi,forward,test,11,5,"[(212, -65), (-272, 196), (-190, 278), (70, -86), (60, -247), (134, -240), (-198, -287), (-159, 113), (-6, -49), (-15, -254)]",ccccc,0,3583,"[(0, 1070), (1, 990), (2, 620), (7, 480)]",1070
4443,corsi,sequence,practice,0,2,"[(109, -63), (-79, 30), (61, 222), (294, 67)]",cx,1,4615,"[(0, 2160), (1, 440)]",2160
4443,corsi,sequence,practice,1,2,"[(-299, 147), (263, 110), (149, -280), (69, -274)]",xc,0,1857,"[(0, 850)]",850
4443,corsi,sequence,practice,2,3,"[(-243, -75), (249, 194), (-245, 237), (-153, 99), (206, 105), (231, -184)]",xcc,1,4841,"[(1, 1600), (2, 180), (0, 40)]",1600
4443,corsi,sequence,practice,3,3,"[(-87, 85), (-101, -204), (52, -69), (-177, -2), (3, -150), (-71, 177)]",cxc,1,4491,"[(0, 900), (2, 340), (1, 230)]",900
4443,corsi,sequence,test,0,2,"[(20, 205), (-110, -74), (-260, -54), (-297, 83)]",cx,1,1733,"[(0, 940), (1, 581)]",940
4443,corsi,sequence,test,1,2,"[(-151, -103), (-216, 77), (85, -284), (264, 73)]",cx,1,1822,"[(0, 940), (1, 670)]",940
4443,corsi,sequence,test,2,2,"[(-132, 279), (232, 79), (272, -77), (-295, -138)]",cx,1,1714,"[(0, 891), (1, 610)]",891
4443,corsi,sequence,test,3,3,"[(296, 140), (158, 54), (178, 127), (53, 156), (-79, -19), (218, -148)]",xcx,1,2409,"[(1, 1020), (0, 710), (2, 360)]",1020
4443,corsi,sequence,test,4,3,"[(-247, -229), (-222, -54), (-123, -98), (58, 248), (203, -6), (60, -51)]",cxx,1,2277,"[(0, 940), (1, 570), (2, 450)]",940
4443,corsi,sequence,test,5,3,"[(250, -55), (228, -137), (-8, -166), (75, 208), (-20, 117), (-208, -43)]",cxx,1,2579,"[(0, 900), (1, 450), (2, 530)]",900
4443,corsi,sequence,test,6,4,"[(103, 51), (22, -61), (141, 170), (-69, -63), (110, -274), (87, 275), (-89, 202), (-158, 72)]",cxxc,0,3832,"[(0, 2280), (2, 1340)]",2280
4443,corsi,sequence,test,7,4,"[(19, -100), (78, 196), (257, -203), (-289, -160), (231, -105), (100, -75), (-160, -155), (-142, 139)]",cxcx,0,1636,"[(1, 1530)]",1530
4443,corsi,sequence,test,8,4,"[(-61, -184), (-78, 24), (286, 182), (81, -121), (-252, -11), (-293, 262), (-57, 251), (255, 262)]",cxcx,0,5728,"[(0, 900), (2, 3101), (3, 1410)]",900
4444,corsi,simultaneous,practice,0,2,"[(-194, -114), (255, -160), (-285, 153), (-269, -186)]",cc,1,4885,"[(1, 1880), (0, 990)]",1880
4444,corsi,simultaneous,test,0,2,"[(153, -282), (-201, 292), (141, -30), (-130, -168)]",cc,1,4492,"[(0, 2990), (1, 1290)]",2990
4444,corsi,simultaneous,test,1,2,"[(-134, 7), (74, -23), (117, 278), (-212, -166)]",cc,1,2853,"[(0, 1581), (1, 1060)]",1581
4444,corsi,simultaneous,test,2,2,"[(212, -254), (-274, 53), (59, 269), (-167, -191)]",cc,1,3232,"[(0, 1800), (1, 1220)]",1800
4444,corsi,simultaneous,test,3,3,"[(-140, 292), (-122, -187), (17, -288), (-81, -60), (244, -219), (298, 270)]",ccc,1,4088,"[(2, 1640), (1, 1250), (0, 880)]",1640
4444,corsi,simultaneous,test,4,3,"[(19, 212), (48, -166), (-262, -116), (208, -16), (260, -189), (-244, 30)]",ccc,1,3708,"[(2, 1490), (1, 1000), (0, 900)]",1490
4444,corsi,simultaneous,test,5,3,"[(-185, 20), (219, 240), (20, 215), (25, -167), (-250, 187), (190, 141)]",ccc,1,3658,"[(0, 1240), (2, 1460), (1, 640)]",1240
4444,corsi,simultaneous,test,6,4,"[(-154, -51), (145, 144), (293, -244), (-6, 248), (-264, 153), (-255, -295), (-51, 122), (22, -77)]",cccc,1,4984,"[(2, 1500), (0, 1070), (1, 930), (3, 1060)]",1500
4444,corsi,simultaneous,test,7,4,"[(-139, -26), (63, 131), (-163, -273), (152, 165), (-278, 37), (-22, 30), (299, -15), (114, 22)]",cccc,1,3764,"[(2, 1120), (0, 560), (1, 970), (3, 690)]",1120
4444,corsi,simultaneous,test,8,4,"[(-221, -190), (-228, -260), (71, -233), (-193, -95), (-60, -228), (234, -97), (287, -4), (191, 204)]",cccc,1,4344,"[(1, 1350), (0, 430), (3, 1090), (2, 1050)]",1350
4444,corsi,simultaneous,test,9,5,"[(-87, -8), (137, 236), (41, 279), (177, 47), (-274, 74), (193, -221), (-165, -51), (115, 141), (-2, -104), (-274, -174)]",ccccc,1,5271,"[(4, 1020), (0, 730), (3, 940), (1, 1190), (2, 860)]",1020
4444,corsi,simultaneous,test,10,5,"[(-106, 180), (83, -239), (124, -167), (248, 97), (152, 229), (-190, -248), (2, -37), (-50, -190), (-184, 13), (216, -139)]",ccccc,1,4990,"[(1, 1100), (2, 610), (3, 970), (4, 710), (0, 1070)]",1100
4444,corsi,simultaneous,test,11,5,"[(-175, 173), (-285, -16), (-63, 233), (22, -298), (57, -156), (92, 107), (202, -232), (-252, 118), (-153, -182), (214, 123)]",ccccc,1,4920,"[(3, 1150), (4, 760), (1, 760), (0, 890), (2, 830)]",1150
4444,corsi,simultaneous,test,12,6,"[(-159, 105), (238, 16), (-231, 219), (39, -80), (-56, -125), (-14, -298), (73, 31), (-136, 180), (243, -71), (-46, 225), (-251, -200), (98, 240)]",cccccc,1,5706,"[(5, 950), (4, 530), (3, 650), (1, 630), (0, 1220), (2, 740)]",950
4444,corsi,simultaneous,test,13,6,"[(-161, -218), (22, 270), (-152, 132), (-64, -96), (124, -224), (-255, 231), (131, -126), (275, 250), (-18, -167), (-250, 161), (-9, 41), (131, 273)]",cccccc,0,4326,"[(0, 1070), (3, 790), (4, 660), (9, 1381)]",1070
4444,corsi,simultaneous,test,14,6,"[(172, 284), (-139, 77), (-89, -61), (-36, -191), (297, 53), (174, -254), (-37, -271), (50, -134), (298, 279), (63, 224), (-276, -128), (168, -6)]",cccccc,0,5770,"[(5, 1470), (3, 640), (2, 560), (1, 560), (11, 2010)]",1470
4444,corsi,simultaneous,test,15,7,"[(-231, 39), (218, -88), (-293, -156), (-224, -255), (110, 37), (-96, 182), (-99, -237), (154, -211), (169, 194), (74, 256), (14, -236), (-134, 270), (184, 55), (-92, 106)]",ccccccc,0,5282,"[(6, 1240), (3, 440), (2, 481), (0, 1070), (13, 1520)]",1240
4444,corsi,simultaneous,test,16,7,"[(-242, -57), (199, 214), (18, 34), (243, -82), (-100, 230), (-247, 69), (127, -4), (-98, -65), (143, -253), (-44, -232), (-226, -146), (46, -64), (-19, 214), (-206, -222)]",ccccccc,0,9041,"[(3, 590), (6, 1280), (2, 780), (5, 1960), (10, 1380)]",590
4444,corsi,simultaneous,test,17,7,"[(-6, 15), (148, -42), (23, 175), (-78, -150), (217, -204), (193, 73), (-299, 173), (288, -80), (23, 285), (-139, -266), (-232, -148), (-270, -34), (-161, 235), (5, -153)]",ccccccc,0,12113,"[(4, 1380), (1, 840), (5, 490), (3, 1240), (0, 640), (6, 760), (12, 6020)]",1380
4444,corsi,forward,practice,0,2,"[(22, -157), (223, -87), (-19, 229), (-248, 280)]",cc,1,5424,"[(0, 2050), (1, 1360)]",2050
4444,corsi,forward,test,0,2,"[(-217, -104), (-214, 227), (-54, 123), (-52, 204)]",cc,1,4072,"[(0, 1880), (1, 1980)]",1880
4444,corsi,forward,test,1,2,"[(-243, 262), (102, 18), (-179, -182), (252, -188)]",cc,1,2623,"[(0, 1680), (1, 730)]",1680
4444,corsi,forward,test,2,2,"[(-130, -36), (202, -240), (247, 121), (-185, 238)]",cc,1,2692,"[(0, 1240), (1, 1240)]",1240
4444,corsi,forward,test,3,3,"[(-203, 180), (24, -213), (199, -196), (247, 253), (-104, 87), (-182, -96)]",ccc,1,3318,"[(0, 1230), (1, 1110), (2, 660)]",1230
4444,corsi,forward,test,4,3,"[(-259, 243), (136, 116), (-77, -137), (-45, 183), (-213, -271), (-109, -238)]",ccc,1,4028,"[(0, 1190), (1, 1440), (2, 1080)]",1190
4444,corsi,forward,test,5,3,"[(29, -275), (-243, -2), (254, 275), (-100, 168), (3, -33), (-243, -191)]",ccc,1,4208,"[(0, 1260), (1, 1330), (2, 1300)]",1260
4444,corsi,forward,test,6,4,"[(-36, -257), (-129, -94), (-128, 254), (-79, -17), (141, 297), (-131, -253), (-210, 37), (-235, -55)]",cccc,1,4384,"[(0, 1170), (1, 980), (2, 1010), (3, 800)]",1170
4444,corsi,forward,test,7,4,"[(-218, -129), (-72, -41), (276, 285), (102, -163), (-186, 26), (-260, 138), (106, -34), (-181, 147)]",cccc,1,4885,"[(0, 1480), (1, 680), (2, 1071), (3, 1230)]",1480
4444,corsi,forward,test,8,4,"[(-83, 98), (-175, 105), (158, -199), (14, -32), (263, -80), (265, 227), (-15, -235), (261, 93)]",cccc,1,4464,"[(0, 1160), (1, 730), (2, 1050), (3, 1100)]",1160
4444,corsi,forward,test,9,5,"[(211, -69), (-16, 194), (290, -229), (-237, -80), (-168, 30), (128, -253), (-159, -226), (-28, -24), (84, -88), (208, 156)]",ccccc,1,7040,"[(0, 1130), (1, 1490), (2, 960), (3, 2200), (4, 730)]",1130
4444,corsi,forward,test,10,5,"[(43, -237), (-207, -84), (14, 201), (-56, -26), (264, -291), (235, 150), (-107, -246), (44, 120), (94, -136), (-287, 211)]",ccccc,0,3758,"[(0, 1060), (1, 970), (7, 1410)]",1060
4444,corsi,forward,test,11,5,"[(212, -65), (-272, 196), (-190, 278), (70, -86), (60, -247), (134, -240), (-198, -287), (-159, 113), (-6, -49), (-15, -254)]",ccccc,0,2182,"[(0, 510), (8, 820)]",510
4444,corsi,forward,test,12,6,"[(-12, -88), (-121, -220), (246, -157), (164, -286), (-108, 79), (256, 112), (139, 142), (-296, -22), (-4, 15), (189, -79), (-179, -137), (160, 213)]",cccccc,0,5192,"[(0, 1031), (1, 861), (2, 920), (3, 700), (5, 1150)]",1031
4444,corsi,forward,test,13,6,"[(298, 270), (148, 116), (186, -52), (-19, 265), (-215, 5), (254, 145), (56, 17), (-40, -213), (-169, 283), (-76, 45), (-270, -276), (-50, -57)]",cccccc,0,5715,"[(0, 1290), (1, 750), (2, 891), (4, 1820)]",1290
4444,corsi,forward,test,14,6,"[(-69, -90), (198, 198), (-281, -94), (33, 6), (121, 202), (-167, -84), (299, 157), (-92, -210), (129, -175), (248, 28), (-146, 162), (-11, 212)]",cccccc,0,1616,"[(3, 1510)]",1510
4444,corsi,sequence,practice,0,2,"[(109, -63), (-79, 30), (61, 222), (294, 67)]",cx,1,4044,"[(0, 1550), (1, 480)]",1550
4444,corsi,sequence,practice,1,2,"[(-299, 147), (263, 110), (149, -280), (69, -274)]",xc,1,3374,"[(1, 1320), (0, 40)]",1320
4444,corsi,sequence,practice,2,3,"[(-243, -75), (249, 194), (-245, 237), (-153, 99), (206, 105), (231, -184)]",xcc,1,4372,"[(1, 1150), (2, 90), (0, 110)]",1150
4444,corsi,sequence,practice,3,3,"[(-87, 85), (-101, -204), (52, -69), (-177, -2), (3, -150), (-71, 177)]",cxc,1,5841,"[(0, 1520), (2, 1220), (1, 80)]",1520
4444,corsi,sequence,test,0,2,"[(20, 205), (-110, -74), (-260, -54), (-297, 83)]",cx,1,2362,"[(0, 1150), (1, 1000)]",1150
4444,corsi,sequence,test,1,2,"[(-151, -103), (-216, 77), (85, -284), (264, 73)]",cx,1,2383,"[(0, 1390), (1, 781)]",1390
4444,corsi,sequence,test,2,2,"[(-132, 279), (232, 79), (272, -77), (-295, -138)]",cx,1,2172,"[(0, 1130), (1, 830)]",1130
4444,corsi,sequence,test,3,3,"[(296, 140), (158, 54), (178, 127), (53, 156), (-79, -19), (218, -148)]",xcx,0,2312,"[(1, 1860), (1, 240)]",1860
4444,corsi,sequence,test,4,3,"[(-247, -229), (-222, -54), (-123, -98), (58, 248), (203, -6), (60, -51)]",cxx,1,3268,"[(0, 1430), (1, 820), (2, 700)]",1430
4444,corsi,sequence,test,5,3,"[(250, -55), (228, -137), (-8, -166), (75, 208), (-20, 117), (-208, -43)]",cxx,1,2788,"[(0, 1160), (1, 630), (2, 680)]",1160
4444,corsi,sequence,test,6,4,"[(103, 51), (22, -61), (141, 170), (-69, -63), (110, -274), (87, 275), (-89, 202), (-158, 72)]",cxxc,1,4413,"[(0, 1511), (3, 760), (1, 530), (2, 1190)]",1511
4444,corsi,sequence,test,7,4,"[(19, -100), (78, 196), (257, -203), (-289, -160), (231, -105), (100, -75), (-160, -155), (-142, 139)]",cxcx,1,4793,"[(0, 1400), (2, 1030), (1, 1170), (3, 770)]",1400
4444,corsi,sequence,test,8,4,"[(-61, -184), (-78, 24), (286, 182), (81, -121), (-252, -11), (-293, 262), (-57, 251), (255, 262)]",cxcx,1,6354,"[(0, 610), (2, 1670), (1, 1450), (3, 740)]",610
4444,corsi,sequence,test,9,5,"[(62, -65), (-119, -104), (-212, 105), (-103, 123), (140, -11), (61, 208), (96, -144), (276, 185), (185, -257), (21, -160)]",cxxcc,0,1842,"[(0, 1060), (4, 570)]",1060
4444,corsi,sequence,test,10,5,"[(239, 79), (140, -16), (-254, -54), (253, -36), (-140, -83), (-113, -245), (-291, 101), (204, -290), (-206, 157), (48, 7)]",cxcxx,0,2968,"[(0, 1340), (2, 740), (4, 570)]",1340
4444,corsi,sequence,test,11,5,"[(34, 233), (-51, -259), (-268, 137), (-189, -237), (168, -102), (-65, 225), (-226, -94), (-158, 103), (170, 5), (296, -263)]",xxccx,0,2629,"[(2, 990), (3, 800), (1, 521)]",990
4445,corsi,simultaneous,practice,0,2,"[(-194, -114), (255, -160), (-285, 153), (-269, -186)]",cc,1,6924,"[(1, 1100), (0, 3820)]",1100
4445,corsi,simultaneous,test,0,2,"[(153, -282), (-201, 292), (141, -30), (-130, -168)]",cc,1,2504,"[(0, 1260), (1, 1040)]",1260
4445,corsi,simultaneous,test,1,2,"[(-134, 7), (74, -23), (117, 278), (-212, -166)]",cc,1,2324,"[(1, 1250), (0, 870)]",1250
4445,corsi,simultaneous,test,2,2,"[(212, -254), (-274, 53), (59, 269), (-167, -191)]",cc,1,2554,"[(1, 960), (0, 1390)]",960
4445,corsi,simultaneous,test,3,3,"[(-140, 292), (-122, -187), (17, -288), (-81, -60), (244, -219), (298, 270)]",ccc,1,3106,"[(2, 1380), (1, 590), (0, 830)]",1380
4445,corsi,simultaneous,test,4,3,"[(19, 212), (48, -166), (-262, -116), (208, -16), (260, -189), (-244, 30)]",ccc,1,2946,"[(2, 1240), (1, 710), (0, 690)]",1240
4445,corsi,simultaneous,test,5,3,"[(-185, 20), (219, 240), (20, 215), (25, -167), (-250, 187), (190, 141)]",ccc,1,2517,"[(0, 1011), (2, 500), (1, 700)]",1011
4445,corsi,simultaneous,test,6,4,"[(-154, -51), (145, 144), (293, -244), (-6, 248), (-264, 153), (-255, -295), (-51, 122), (22, -77)]",cccc,1,3948,"[(2, 1220), (1, 1060), (3, 540), (0, 720)]",1220
4445,corsi,simultaneous,test,7,4,"[(-139, -26), (63, 131), (-163, -273), (152, 165), (-278, 37), (-22, 30), (299, -15), (114, 22)]",cccc,1,2588,"[(2, 880), (0, 510), (1, 470), (3, 320)]",880
4445,corsi,simultaneous,test,8,4,"[(-221, -190), (-228, -260), (71, -233), (-193, -95), (-60, -228), (234, -97), (287, -4), (191, 204)]",cccc,1,3688,"[(1, 960), (0, 400), (3, 390), (2, 680)]",960
4445,corsi,simultaneous,test,9,5,"[(-87, -8), (137, 236), (41, 279), (177, 47), (-274, 74), (193, -221), (-165, -51), (115, 141), (-2, -104), (-274, -174)]",ccccc,1,4850,"[(0, 780), (3, 690), (1, 350), (2, 620), (4, 1320)]",780
4445,corsi,simultaneous,test,10,5,"[(-106, 180), (83, -239), (124, -167), (248, 97), (152, 229), (-190, -248), (2, -37), (-50, -190), (-184, 13), (216, -139)]",ccccc,1,3890,"[(1, 1030), (2, 590), (3, 460), (4, 450), (0, 850)]",1030
4445,corsi,simultaneous,test,11,5,"[(-175, 173), (-285, -16), (-63, 233), (22, -298), (57, -156), (92, 107), (202, -232), (-252, 118), (-153, -182), (214, 123)]",ccccc,1,3720,"[(3, 810), (4, 380), (1, 680), (0, 670), (2, 670)]",810
4445,corsi,simultaneous,test,12,6,"[(-159, 105), (238, 16), (-231, 219), (39, -80), (-56, -125), (-14, -298), (73, 31), (-136, 180), (243, -71), (-46, 225), (-251, -200), (98, 240)]",cccccc,1,4832,"[(5, 820), (4, 550), (3, 590), (1, 670), (0, 830), (2, 760)]",820
4445,corsi,simultaneous,test,13,6,"[(-161, -218), (22, 270), (-152, 132), (-64, -96), (124, -224), (-255, 231), (131, -126), (275, 250), (-18, -167), (-250, 161), (-9, 41), (131, 273)]",cccccc,0,4008,"[(0, 920), (3, 420), (4, 440), (10, 1820)]",920
4445,corsi,simultaneous,test,14,6,"[(172, 284), (-139, 77), (-89, -61), (-36, -191), (297, 53), (174, -254), (-37, -271), (50, -134), (298, 279), (63, 224), (-276, -128), (168, -6)]",cccccc,0,4290,"[(5, 790), (3, 640), (2, 390), (1, 710), (9, 660)]",790
4445,corsi,simultaneous,test,15,7,"[(-231, 39), (218, -88), (-293, -156), (-224, -255), (110, 37), (-96, 182), (-99, -237), (154, -211), (169, 194), (74, 256), (14, -236), (-134, 270), (184, 55), (-92, 106)]",ccccccc,0,6400,"[(6, 750), (3, 670), (2, 420), (0, 690), (8, 3360)]",750
4445,corsi,simultaneous,test,16,7,"[(-242, -57), (199, 214), (18, 34), (243, -82), (-100, 230), (-247, 69), (127, -4), (-98, -65), (143, -253), (-44, -232), (-226, -146), (46, -64), (-19, 214), (-206, -222)]",ccccccc,0,3842,"[(3, 930), (6, 410), (2, 380), (0, 460), (5, 350), (12, 700)]",930
4445,corsi,simultaneous,test,17,7,"[(-6, 15), (148, -42), (23, 175), (-78, -150), (217, -204), (193, 73), (-299, 173), (288, -80), (23, 285), (-139, -266), (-232, -148), (-270, -34), (-161, 235), (5, -153)]",ccccccc,0,5584,"[(4, 1250), (1, 560), (5, 430), (3, 780), (0, 470), (2, 570), (12, 810)]",1250
4445,corsi,forward,practice,0,2,"[(22, -157), (223, -87), (-19, 229), (-248, 280)]",cc,1,6235,"[(0, 1951), (1, 2280)]",1951
4445,corsi,forward,test,0,2,"[(-217, -104), (-214, 227), (-54, 123), (-52, 204)]",cc,1,1734,"[(0, 930), (1, 600)]",930
4445,corsi,forward,test,1,2,"[(-243, 262), (102, 18), (-179, -182), (252, -188)]",cc,0,1272,"[(1, 1170)]",1170
4445,corsi,forward,test,2,2,"[(-130, -36), (202, -240), (247, 121), (-185, 238)]",cc,1,2224,"[(0, 780), (1, 1240)]",780
4445,corsi,forward,test,3,3,"[(-203, 180), (24, -213), (199, -196), (247, 253), (-104, 87), (-182, -96)]",ccc,1,2556,"[(0, 850), (1, 790), (2, 610)]",850
4445,corsi,forward,test,4,3,"[(-259, 243), (136, 116), (-77, -137), (-45, 183), (-213, -271), (-109, -238)]",ccc,1,2706,"[(0, 840), (1, 860), (2, 700)]",840
4445,corsi,forward,test,5,3,"[(29, -275), (-243, -2), (254, 275), (-100, 168), (3, -33), (-243, -191)]",ccc,1,2506,"[(0, 970), (1, 690), (2, 540)]",970
4445,corsi,forward,test,6,4,"[(-36, -257), (-129, -94), (-128, 254), (-79, -17), (141, 297), (-131, -253), (-210, 37), (-235, -55)]",cccc,0,3066,"[(0, 1380), (1, 850), (3, 530)]",1380
4445,corsi,forward,test,7,4,"[(-218, -129), (-72, -41), (276, 285), (102, -163), (-186, 26), (-260, 138), (106, -34), (-181, 147)]",cccc,1,3458,"[(0, 1140), (1, 530), (2, 530), (3, 850)]",1140
4445,corsi,forward,test,8,4,"[(-83, 98), (-175, 105), (158, -199), (14, -32), (263, -80), (265, 227), (-15, -235), (261, 93)]",cccc,0,1012,"[(1, 910)]",910
4445,corsi,forward,test,9,5,"[(211, -69), (-16, 194), (290, -229), (-237, -80), (-168, 30), (128, -253), (-159, -226), (-28, -24), (84, -88), (208, 156)]",ccccc,0,1302,"[(1, 1200)]",1200
4445,corsi,forward,test,10,5,"[(43, -237), (-207, -84), (14, 201), (-56, -26), (264, -291), (235, 150), (-107, -246), (44, 120), (94, -136), (-287, 211)]",ccccc,0,4627,"[(0, 980), (1, 870), (7, 2471)]",980
4445,corsi,forward,test,11,5,"[(212, -65), (-272, 196), (-190, 278), (70, -86), (60, -247), (134, -240), (-198, -287), (-159, 113), (-6, -49), (-15, -254)]",ccccc,0,3094,"[(0, 1580), (2, 1310)]",1580
4445,corsi,sequence,practice,0,2,"[(109, -63), (-79, 30), (61, 222), (294, 67)]",cx,1,3334,"[(0, 1000), (1, 330)]",1000
4445,corsi,sequence,practice,1,2,"[(-299, 147), (263, 110), (149, -280), (69, -274)]",xc,1,4234,"[(1, 1560), (0, 670)]",1560
4445,corsi,sequence,practice,2,3,"[(-243, -75), (249, 194), (-245, 237), (-153, 99), (206, 105), (231, -184)]",xcc,1,4807,"[(1, 960), (2, 570), (0, 271)]",960
4445,corsi,sequence,practice,3,3,"[(-87, 85), (-101, -204), (52, -69), (-177, -2), (3, -150), (-71, 177)]",cxc,1,4526,"[(0, 720), (2, 650), (1, 150)]",720
4445,corsi,sequence,test,0,2,"[(20, 205), (-110, -74), (-260, -54), (-297, 83)]",cx,1,2114,"[(0, 1350), (1, 560)]",1350
4445,corsi,sequence,test,1,2,"[(-151, -103), (-216, 77), (85, -284), (264, 73)]",cx,1,1634,"[(0, 970), (1, 460)]",970
4445,corsi,sequence,test,2,2,"[(-132, 279), (232, 79), (272, -77), (-295, -138)]",cx,1,1904,"[(0, 1020), (1, 680)]",1020
4445,corsi,sequence,test,3,3,"[(296, 140), (158, 54), (178, 127), (53, 156), (-79, -19), (218, -148)]",xcx,0,2314,"[(1, 1640), (2, 470)]",1640
4445,corsi,sequence,test,4,3,"[(-247, -229), (-222, -54), (-123, -98), (58, 248), (203, -6), (60, -51)]",cxx,1,2306,"[(0, 840), (1, 650), (2, 510)]",840
4445,corsi,sequence,test,5,3,"[(250, -55), (228, -137), (-8, -166), (75, 208), (-20, 117), (-208, -43)]",cxx,1,2717,"[(0, 890), (1, 491), (2, 1030)]",890
4445,corsi,sequence,test,6,4,"[(103, 51), (22, -61), (141, 170), (-69, -63), (110, -274), (87, 275), (-89, 202), (-158, 72)]",cxxc,1,5318,"[(0, 350), (3, 760), (1, 1670), (2, 860)]",350
4445,corsi,sequence,test,7,4,"[(19, -100), (78, 196), (257, -203), (-289, -160), (231, -105), (100, -75), (-160, -155), (-142, 139)]",cxcx,0,2554,"[(0, 1500), (1, 850)]",1500
4445,corsi,sequence,test,8,4,"[(-61, -184), (-78, 24), (286, 182), (81, -121), (-252, -11), (-293, 262), (-57, 251), (255, 262)]",cxcx,0,3297,"[(0, 851), (2, 1290), (3, 850)]",851
4445,corsi,sequence,test,9,5,"[(62, -65), (-119, -104), (-212, 105), (-103, 123), (140, -11), (61, 208), (96, -144), (276, 185), (185, -257), (21, -160)]",cxxcc,1,4980,"[(0, 1070), (3, 840), (4, 810), (1, 1070), (2, 680)]",1070
4445,corsi,sequence,test,10,5,"[(239, 79), (140, -16), (-254, -54), (253, -36), (-140, -83), (-113, -245), (-291, 101), (204, -290), (-206, 157), (48, 7)]",cxcxx,0,3616,"[(0, 990), (2, 1140), (4, 1180)]",990
4445,corsi,sequence,test,11,5,"[(34, 233), (-51, -259), (-268, 137), (-189, -237), (168, -102), (-65, 225), (-226, -94), (-158, 103), (170, 5), (296, -263)]",xxccx,0,3216,"[(2, 1150), (3, 630), (1, 1130)]",1150
4445,corsi,sequence,test,12,6,"[(-214, -130), (214, 122), (110, -96), (-255, -7), (49, 99), (72, -199), (-74, 114), (200, -290), (-285, 124), (-226, 246), (102, 222), (-6, -13)]",xccxcx,0,2064,"[(1, 1070), (4, 790)]",1070
4445,corsi,sequence,test,13,6,"[(-142, -158), (249, -52), (-57, 248), (-87, 4), (37, 237), (114, 170), (115, -80), (-84, 162), (-235, 238), (216, 56), (223, 239), (13, 33)]",cxcxxc,0,5339,"[(0, 860), (2, 810), (5, 1060), (7, 1311)]",860
4445,corsi,sequence,test,14,6,"[(-6, 86), (241, -210), (57, -104), (-193, 265), (125, 47), (41, 199), (-284, 236), (175, 227), (146, 133), (216, 118), (48, 290), (-183, -208)]",ccxxxc,0,962,"[(1, 860)]",860
4447,corsi,simultaneous,practice,0,2,"[(-194, -114), (255, -160), (-285, 153), (-269, -186)]",cc,1,6043,"[(0, 2330), (1, 1700)]",2330
4447,corsi,simultaneous,test,0,2,"[(153, -282), (-201, 292), (141, -30), (-130, -168)]",cc,1,2232,"[(0, 1060), (1, 961)]",1060
4447,corsi,simultaneous,test,1,2,"[(-134, 7), (74, -23), (117, 278), (-212, -166)]",cc,1,1592,"[(0, 720), (1, 660)]",720
4447,corsi,simultaneous,test,2,2,"[(212, -254), (-274, 53), (59, 269), (-167, -191)]",cc,1,2033,"[(0, 980), (1, 841)]",980
4447,corsi,simultaneous,test,3,3,"[(-140, 292), (-122, -187), (17, -288), (-81, -60), (244, -219), (298, 270)]",ccc,0,3997,"[(3, 3891)]",3891
4447,corsi,simultaneous,test,4,3,"[(19, 212), (48, -166), (-262, -116), (208, -16), (260, -189), (-244, 30)]",ccc,1,4247,"[(0, 870), (1, 2330), (2, 730)]",870
4447,corsi,simultaneous,test,5,3,"[(-185, 20), (219, 240), (20, 215), (25, -167), (-250, 187), (190, 141)]",ccc,1,2708,"[(0, 1140), (2, 531), (1, 720)]",1140
4447,corsi,simultaneous,test,6,4,"[(-154, -51), (145, 144), (293, -244), (-6, 248), (-264, 153), (-255, -295), (-51, 122), (22, -77)]",cccc,1,3123,"[(0, 790), (3, 570), (1, 611), (2, 731)]",790
4447,corsi,simultaneous,test,7,4,"[(-139, -26), (63, 131), (-163, -273), (152, 165), (-278, 37), (-22, 30), (299, -15), (114, 22)]",cccc,1,3003,"[(2, 950), (0, 580), (1, 610), (3, 440)]",950
4447,corsi,simultaneous,test,8,4,"[(-221, -190), (-228, -260), (71, -233), (-193, -95), (-60, -228), (234, -97), (287, -4), (191, 204)]",cccc,1,2653,"[(2, 900), (1, 480), (0, 350), (3, 501)]",900
4447,corsi,simultaneous,test,9,5,"[(-87, -8), (137, 236), (41, 279), (177, 47), (-274, 74), (193, -221), (-165, -51), (115, 141), (-2, -104), (-274, -174)]",ccccc,0,3158,"[(4, 1030), (0, 450), (7, 1360)]",1030
4447,corsi,simultaneous,test,10,5,"[(-106, 180), (83, -239), (124, -167), (248, 97), (152, 229), (-190, -248), (2, -37), (-50, -190), (-184, 13), (216, -139)]",ccccc,1,3908,"[(1, 1311), (2, 270), (3, 550), (4, 601), (0, 650)]",1311
4447,corsi,simultaneous,test,11,5,"[(-175, 173), (-285, -16), (-63, 233), (22, -298), (57, -156), (92, 107), (202, -232), (-252, 118), (-153, -182), (214, 123)]",ccccc,1,3469,"[(1, 860), (0, 640), (2, 490), (4, 550), (3, 400)]",860
4447,corsi,simultaneous,test,12,6,"[(-159, 105), (238, 16), (-231, 219), (39, -80), (-56, -125), (-14, -298), (73, 31), (-136, 180), (243, -71), (-46, 225), (-251, -200), (98, 240)]",cccccc,0,4546,"[(5, 1070), (4, 620), (3, 411), (1, 470), (2, 1030), (7, 310)]",1070
4447,corsi,simultaneous,test,13,6,"[(-161, -218), (22, 270), (-152, 132), (-64, -96), (124, -224), (-255, 231), (131, -126), (275, 250), (-18, -167), (-250, 161), (-9, 41), (131, 273)]",cccccc,0,2201,"[(0, 1200), (9, 790)]",1200
4447,corsi,simultaneous,test,14,6,"[(172, 284), (-139, 77), (-89, -61), (-36, -191), (297, 53), (174, -254), (-37, -271), (50, -134), (298, 279), (63, 224), (-276, -128), (168, -6)]",cccccc,0,7615,"[(3, 850), (2, 360), (1, 430), (5, 560), (0, 540), (8, 4241)]",850
4447,corsi,forward,practice,0,2,"[(22, -157), (223, -87), (-19, 229), (-248, 280)]",cc,1,3633,"[(0, 720), (1, 900)]",720
4447,corsi,forward,test,0,2,"[(-217, -104), (-214, 227), (-54, 123), (-52, 204)]",cc,1,1772,"[(0, 830), (1, 730)]",830
4447,corsi,forward,test,1,2,"[(-243, 262), (102, 18), (-179, -182), (252, -188)]",cc,1,1493,"[(0, 841), (1, 440)]",841
4447,corsi,forward,test,2,2,"[(-130, -36), (202, -240), (247, 121), (-185, 238)]",cc,1,1871,"[(0, 1080), (1, 581)]",1080
4447,corsi,forward,test,3,3,"[(-203, 180), (24, -213), (199, -196), (247, 253), (-104, 87), (-182, -96)]",ccc,1,2388,"[(0, 1051), (1, 640), (2, 380)]",1051
4447,corsi,forward,test,4,3,"[(-259, 243), (136, 116), (-77, -137), (-45, 183), (-213, -271), (-109, -238)]",ccc,0,1135,"[(2, 1030)]",1030
4447,corsi,forward,test,5,3,"[(29, -275), (-243, -2), (254, 275), (-100, 168), (3, -33), (-243, -191)]",ccc,1,2667,"[(0, 920), (1, 721), (2, 710)]",920
4447,corsi,forward,test,6,4,"[(-36, -257), (-129, -94), (-128, 254), (-79, -17), (141, 297), (-131, -253), (-210, 37), (-235, -55)]",cccc,1,3213,"[(0, 960), (1, 570), (2, 721), (3, 540)]",960
4447,corsi,forward,test,7,4,"[(-218, -129), (-72, -41), (276, 285), (102, -163), (-186, 26), (-260, 138), (106, -34), (-181, 147)]",cccc,1,3013,"[(0, 890), (1, 490), (2, 590), (3, 620)]",890
4447,corsi,forward,test,8,4,"[(-83, 98), (-175, 105), (158, -199), (14, -32), (263, -80), (265, 227), (-15, -235), (261, 93)]",cccc,0,1036,"[(1, 930)]",930
4447,corsi,forward,test,9,5,"[(211, -69), (-16, 194), (290, -229), (-237, -80), (-168, 30), (128, -253), (-159, -226), (-28, -24), (84, -88), (208, 156)]",ccccc,0,3132,"[(0, 840), (1, 611), (2, 690), (4, 570)]",840
4447,corsi,forward,test,10,5,"[(43, -237), (-207, -84), (14, 201), (-56, -26), (264, -291), (235, 150), (-107, -246), (44, 120), (94, -136), (-287, 211)]",ccccc,0,3603,"[(0, 1150), (1, 640), (2, 530), (4, 370)]",1150
4447,corsi,forward,test,11,5,"[(212, -65), (-272, 196), (-190, 278), (70, -86), (60, -247), (134, -240), (-198, -287), (-159, 113), (-6, -49), (-15, -254)]",ccccc,0,3372,"[(0, 950), (1, 720), (2, 550), (7, 370)]",950
4447,corsi,sequence,practice,0,2,"[(109, -63), (-79, 30), (61, 222), (294, 67)]",cx,1,4254,"[(0, 1660), (1, 581)]",1660
4447,corsi,sequence,practice,1,2,"[(-299, 147), (263, 110), (149, -280), (69, -274)]",xc,1,4403,"[(1, 360), (0, 1070)]",360
4447,corsi,sequence,practice,2,3,"[(-243, -75), (249, 194), (-245, 237), (-153, 99), (206, 105), (231, -184)]",xcc,1,5100,"[(1, 1170), (2, 510), (0, 400)]",1170
4447,corsi,sequence,practice,3,3,"[(-87, 85), (-101, -204), (52, -69), (-177, -2), (3, -150), (-71, 177)]",cxc,0,1606,"[(2, 600)]",600
4447,corsi,sequence,test,0,2,"[(20, 205), (-110, -74), (-260, -54), (-297, 83)]",cx,1,3252,"[(0, 2160), (1, 880)]",2160
4447,corsi,sequence,test,1,2,"[(-151, -103), (-216, 77), (85, -284), (264, 73)]",cx,1,2492,"[(0, 1740), (1, 540)]",1740
4447,corsi,sequence,test,2,2,"[(-132, 279), (232, 79), (272, -77), (-295, -138)]",cx,0,896,"[(3, 790)]",790
4447,corsi,sequence,test,3,3,"[(296, 140), (158, 54), (178, 127), (53, 156), (-79, -19), (218, -148)]",xcx,1,2097,"[(1, 960), (0, 450), (2, 370)]",960
4447,corsi,sequence,test,4,3,"[(-247, -229), (-222, -54), (-123, -98), (58, 248), (203, -6), (60, -51)]",cxx,1,2207,"[(0, 950), (1, 550), (2, 390)]",950
4447,corsi,sequence,test,5,3,"[(250, -55), (228, -137), (-8, -166), (75, 208), (-20, 117), (-208, -43)]",cxx,1,2007,"[(0, 780), (1, 400), (2, 510)]",780
4447,corsi,sequence,test,6,4,"[(103, 51), (22, -61), (141, 170), (-69, -63), (110, -274), (87, 275), (-89, 202), (-158, 72)]",cxxc,0,926,"[(1, 821)]",821
4447,corsi,sequence,test,7,4,"[(19, -100), (78, 196), (257, -203), (-289, -160), (231, -105), (100, -75), (-160, -155), (-142, 139)]",cxcx,0,3902,"[(0, 3410), (5, 280)]",3410
4447,corsi,sequence,test,8,4,"[(-61, -184), (-78, 24), (286, 182), (81, -121), (-252, -11), (-293, 262), (-57, 251), (255, 262)]",cxcx,0,1530,"[(0, 950), (1, 370)]",950
4448,corsi,simultaneous,practice,0,2,"[(-194, -114), (255, -160), (-285, 153), (-269, -186)]",cc,1,6568,"[(0, 3941), (1, 600)]",3941
4448,corsi,simultaneous,test,0,2,"[(153, -282), (-201, 292), (141, -30), (-130, -168)]",cc,1,2301,"[(0, 960), (1, 1130)]",960
4448,corsi,simultaneous,test,1,2,"[(-134, 7), (74, -23), (117, 278), (-212, -166)]",cc,1,2321,"[(0, 1330), (1, 780)]",1330
4448,corsi,simultaneous,test,2,2,"[(212, -254), (-274, 53), (59, 269), (-167, -191)]",cc,1,2711,"[(1, 1530), (0, 970)]",1530
4448,corsi,simultaneous,test,3,3,"[(-140, 292), (-122, -187), (17, -288), (-81, -60), (244, -219), (298, 270)]",ccc,1,2737,"[(2, 690), (1, 720), (0, 1010)]",690
4448,corsi,simultaneous,test,4,3,"[(19, 212), (48, -166), (-262, -116), (208, -16), (260, -189), (-244, 30)]",ccc,1,3107,"[(2, 850), (1, 630), (0, 530)]",850
4448,corsi,simultaneous,test,5,3,"[(-185, 20), (219, 240), (20, 215), (25, -167), (-250, 187), (190, 141)]",ccc,1,2417,"[(0, 1020), (2, 560), (1, 520)]",1020
4448,corsi,simultaneous,test,6,4,"[(-154, -51), (145, 144), (293, -244), (-6, 248), (-264, 153), (-255, -295), (-51, 122), (22, -77)]",cccc,1,2965,"[(0, 931), (3, 540), (1, 530), (2, 540)]",931
4448,corsi,simultaneous,test,7,4,"[(-139, -26), (63, 131), (-163, -273), (152, 165), (-278, 37), (-22, 30), (299, -15), (114, 22)]",cccc,1,3319,"[(2, 1300), (0, 580), (1, 740), (3, 280)]",1300
4448,corsi,simultaneous,test,8,4,"[(-221, -190), (-228, -260), (71, -233), (-193, -95), (-60, -228), (234, -97), (287, -4), (191, 204)]",cccc,1,2761,"[(1, 790), (0, 400), (3, 620), (2, 530)]",790
4448,corsi,simultaneous,test,9,5,"[(-87, -8), (137, 236), (41, 279), (177, 47), (-274, 74), (193, -221), (-165, -51), (115, 141), (-2, -104), (-274, -174)]",ccccc,1,3810,"[(4, 940), (0, 570), (3, 840), (1, 530), (2, 400)]",940
4448,corsi,simultaneous,test,10,5,"[(-106, 180), (83, -239), (124, -167), (248, 97), (152, 229), (-190, -248), (2, -37), (-50, -190), (-184, 13), (216, -139)]",ccccc,1,3599,"[(1, 950), (2, 400), (3, 620), (4, 570), (0, 530)]",950
4448,corsi,simultaneous,test,11,5,"[(-175, 173), (-285, -16), (-63, 233), (22, -298), (57, -156), (92, 107), (202, -232), (-252, 118), (-153, -182), (214, 123)]",ccccc,1,4470,"[(3, 740), (4, 460), (1, 1090), (0, 760), (2, 440)]",740
4448,corsi,simultaneous,test,12,6,"[(-159, 105), (238, 16), (-231, 219), (39, -80), (-56, -125), (-14, -298), (73, 31), (-136, 180), (243, -71), (-46, 225), (-251, -200), (98, 240)]",cccccc,0,2227,"[(5, 930), (4, 420), (6, 560)]",930
4448,corsi,simultaneous,test,13,6,"[(-161, -218), (22, 270), (-152, 132), (-64, -96), (124, -224), (-255, 231), (131, -126), (275, 250), (-18, -167), (-250, 161), (-9, 41), (131, 273)]",cccccc,0,7615,"[(0, 960), (3, 200), (2, 800), (1, 470), (5, 760), (9, 3390)]",960
4448,corsi,simultaneous,test,14,6,"[(172, 284), (-139, 77), (-89, -61), (-36, -191), (297, 53), (174, -254), (-37, -271), (50, -134), (298, 279), (63, 224), (-276, -128), (168, -6)]",cccccc,0,3384,"[(3, 931), (2, 470), (1, 310), (8, 790)]",931
4448,corsi,forward,practice,0,2,"[(22, -157), (223, -87), (-19, 229), (-248, 280)]",cc,1,3204,"[(0, 1050), (1, 140)]",1050
4448,corsi,forward,test,0,2,"[(-217, -104), (-214, 227), (-54, 123), (-52, 204)]",cc,1,2112,"[(0, 1161), (1, 740)]",1161
4448,corsi,forward,test,1,2,"[(-243, 262), (102, 18), (-179, -182), (252, -188)]",cc,1,2142,"[(0, 940), (1, 990)]",940
4448,corsi,forward,test,2,2,"[(-130, -36), (202, -240), (247, 121), (-185, 238)]",cc,1,1703,"[(0, 701), (1, 790)]",701
4448,corsi,forward,test,3,3,"[(-203, 180), (24, -213), (199, -196), (247, 253), (-104, 87), (-182, -96)]",ccc,1,2588,"[(0, 870), (1, 720), (2, 680)]",870
4448,corsi,forward,test,4,3,"[(-259, 243), (136, 116), (-77, -137), (-45, 183), (-213, -271), (-109, -238)]",ccc,1,2838,"[(0, 1260), (1, 640), (2, 620)]",1260
4448,corsi,forward,test,5,3,"[(29, -275), (-243, -2), (254, 275), (-100, 168), (3, -33), (-243, -191)]",ccc,1,3507,"[(0, 1220), (1, 960), (2, 1010)]",1220
4448,corsi,forward,test,6,4,"[(-36, -257), (-129, -94), (-128, 254), (-79, -17), (141, 297), (-131, -253), (-210, 37), (-235, -55)]",cccc,0,1851,"[(0, 1050), (3, 590)]",1050
4448,corsi,forward,test,7,4,"[(-218, -129), (-72, -41), (276, 285), (102, -163), (-186, 26), (-260, 138), (106, -34), (-181, 147)]",cccc,1,4684,"[(0, 970), (1, 510), (2, 980), (3, 740)]",970
4448,corsi,forward,test,8,4,"[(-83, 98), (-175, 105), (158, -199), (14, -32), (263, -80), (265, 227), (-15, -235), (261, 93)]",cccc,1,2754,"[(0, 740), (1, 430), (2, 730), (3, 430)]",740
4448,corsi,forward,test,9,5,"[(211, -69), (-16, 194), (290, -229), (-237, -80), (-168, 30), (128, -253), (-159, -226), (-28, -24), (84, -88), (208, 156)]",ccccc,0,1176,"[(2, 1070)]",1070
4448,corsi,forward,test,10,5,"[(43, -237), (-207, -84), (14, 201), (-56, -26), (264, -291), (235, 150), (-107, -246), (44, 120), (94, -136), (-287, 211)]",ccccc,0,2367,"[(0, 700), (1, 590), (7, 760)]",700
4448,corsi,forward,test,11,5,"[(212, -65), (-272, 196), (-190, 278), (70, -86), (60, -247), (134, -240), (-198, -287), (-159, 113), (-6, -49), (-15, -254)]",ccccc,0,1872,"[(0, 720), (7, 940)]",720
4448,corsi,sequence,practice,0,2,"[(109, -63), (-79, 30), (61, 222), (294, 67)]",cx,1,3762,"[(0, 870), (1, 880)]",870
4448,corsi,sequence,practice,1,2,"[(-299, 147), (263, 110), (149, -280), (69, -274)]",xc,0,1987,"[(0, 970)]",970
4448,corsi,sequence,practice,2,3,"[(-243, -75), (249, 194), (-245, 237), (-153, 99), (206, 105), (231, -184)]",xcc,1,4971,"[(1, 900), (2, 760), (0, 290)]",900
4448,corsi,sequence,practice,3,3,"[(-87, 85), (-101, -204), (52, -69), (-177, -2), (3, -150), (-71, 177)]",cxc,1,4831,"[(0, 660), (2, 680), (1, 470)]",660
4448,corsi,sequence,test,0,2,"[(20, 205), (-110, -74), (-260, -54), (-297, 83)]",cx,1,1771,"[(0, 950), (1, 610)]",950
4448,corsi,sequence,test,1,2,"[(-151, -103), (-216, 77), (85, -284), (264, 73)]",cx,1,2601,"[(0, 1460), (1, 930)]",1460
4448,corsi,sequence,test,2,2,"[(-132, 279), (232, 79), (272, -77), (-295, -138)]",cx,1,2411,"[(0, 1130), (1, 1070)]",1130
4448,corsi,sequence,test,3,3,"[(296, 140), (158, 54), (178, 127), (53, 156), (-79, -19), (218, -148)]",xcx,0,2432,"[(1, 1461), (2, 760)]",1461
4448,corsi,sequence,test,4,3,"[(-247, -229), (-222, -54), (-123, -98), (58, 248), (203, -6), (60, -51)]",cxx,1,2737,"[(0, 1290), (1, 660), (2, 470)]",1290
4448,corsi,sequence,test,5,3,"[(250, -55), (228, -137), (-8, -166), (75, 208), (-20, 117), (-208, -43)]",cxx,1,3817,"[(0, 2050), (1, 660), (2, 790)]",2050
4448,corsi,sequence,test,6,4,"[(103, 51), (22, -61), (141, 170), (-69, -63), (110, -274), (87, 275), (-89, 202), (-158, 72)]",cxxc,1,4055,"[(0, 660), (3, 1441), (1, 870), (2, 660)]",660
4448,corsi,sequence,test,7,4,"[(19, -100), (78, 196), (257, -203), (-289, -160), (231, -105), (100, -75), (-160, -155), (-142, 139)]",cxcx,1,6221,"[(0, 1000), (2, 2710), (1, 1150), (3, 940)]",1000
4448,corsi,sequence,test,8,4,"[(-61, -184), (-78, 24), (286, 182), (81, -121), (-252, -11), (-293, 262), (-57, 251), (255, 262)]",cxcx,1,4293,"[(0, 1210), (2, 1030), (1, 990), (3, 640)]",1210
4448,corsi,sequence,test,9,5,"[(62, -65), (-119, -104), (-212, 105), (-103, 123), (140, -11), (61, 208), (96, -144), (276, 185), (185, -257), (21, -160)]",cxxcc,1,4111,"[(0, 810), (3, 750), (4, 620), (1, 610), (2, 790)]",810
4448,corsi,sequence,test,10,5,"[(239, 79), (140, -16), (-254, -54), (253, -36), (-140, -83), (-113, -245), (-291, 101), (204, -290), (-206, 157), (48, 7)]",cxcxx,0,5759,"[(0, 831), (2, 1430), (3, 3180)]",831
4448,corsi,sequence,test,11,5,"[(34, 233), (-51, -259), (-268, 137), (-189, -237), (168, -102), (-65, 225), (-226, -94), (-158, 103), (170, 5), (296, -263)]",xxccx,0,5907,"[(2, 2530), (3, 1150), (1, 1910)]",2530
4448,corsi,sequence,test,12,6,"[(-214, -130), (214, 122), (110, -96), (-255, -7), (49, 99), (72, -199), (-74, 114), (200, -290), (-285, 124), (-226, 246), (102, 222), (-6, -13)]",xccxcx,0,5970,"[(1, 1080), (2, 650), (4, 430), (0, 1710), (8, 1570)]",1080
4448,corsi,sequence,test,13,6,"[(-142, -158), (249, -52), (-57, 248), (-87, 4), (37, 237), (114, 170), (115, -80), (-84, 162), (-235, 238), (216, 56), (223, 239), (13, 33)]",cxcxxc,0,3392,"[(0, 980), (7, 1210)]",980
4448,corsi,sequence,test,14,6,"[(-6, 86), (241, -210), (57, -104), (-193, 265), (125, 47), (41, 199), (-284, 236), (175, 227), (146, 133), (216, 118), (48, 290), (-183, -208)]",ccxxxc,0,5912,"[(0, 680), (1, 660), (5, 740), (2, 1181), (6, 2120)]",680
4449,corsi,simultaneous,practice,0,2,"[(-194, -114), (255, -160), (-285, 153), (-269, -186)]",cc,1,6542,"[(0, 2740), (1, 1790)]",2740
4449,corsi,simultaneous,test,0,2,"[(153, -282), (-201, 292), (141, -30), (-130, -168)]",cc,1,4002,"[(1, 1970), (0, 1820)]",1970
4449,corsi,simultaneous,test,1,2,"[(-134, 7), (74, -23), (117, 278), (-212, -166)]",cc,1,1682,"[(0, 920), (1, 550)]",920
4449,corsi,simultaneous,test,2,2,"[(212, -254), (-274, 53), (59, 269), (-167, -191)]",cc,1,1292,"[(1, 580), (0, 500)]",580
4449,corsi,simultaneous,test,3,3,"[(-140, 292), (-122, -187), (17, -288), (-81, -60), (244, -219), (298, 270)]",ccc,1,2138,"[(0, 720), (1, 570), (2, 530)]",720
4449,corsi,simultaneous,test,4,3,"[(19, 212), (48, -166), (-262, -116), (208, -16), (260, -189), (-244, 30)]",ccc,1,2248,"[(2, 900), (1, 470), (0, 560)]",900
4449,corsi,simultaneous,test,5,3,"[(-185, 20), (219, 240), (20, 215), (25, -167), (-250, 187), (190, 141)]",ccc,1,2168,"[(0, 780), (2, 460), (1, 610)]",780
4449,corsi,simultaneous,test,6,4,"[(-154, -51), (145, 144), (293, -244), (-6, 248), (-264, 153), (-255, -295), (-51, 122), (22, -77)]",cccc,1,2874,"[(0, 860), (2, 590), (1, 540), (3, 460)]",860
4449,corsi,simultaneous,test,7,4,"[(-139, -26), (63, 131), (-163, -273), (152, 165), (-278, 37), (-22, 30), (299, -15), (114, 22)]",cccc,1,2385,"[(1, 841), (3, 310), (0, 430), (2, 380)]",841
4449,corsi,simultaneous,test,8,4,"[(-221, -190), (-228, -260), (71, -233), (-193, -95), (-60, -228), (234, -97), (287, -4), (191, 204)]",cccc,1,2074,"[(1, 720), (0, 220), (3, 270), (2, 440)]",720
4449,corsi,simultaneous,test,9,5,"[(-87, -8), (137, 236), (41, 279), (177, 47), (-274, 74), (193, -221), (-165, -51), (115, 141), (-2, -104), (-274, -174)]",ccccc,1,2510,"[(0, 590), (4, 430), (2, 320), (1, 290), (3, 350)]",590
4449,corsi,simultaneous,test,10,5,"[(-106, 180), (83, -239), (124, -167), (248, 97), (152, 229), (-190, -248), (2, -37), (-50, -190), (-184, 13), (216, -139)]",ccccc,1,2930,"[(1, 880), (2, 230), (3, 480), (4, 340), (0, 470)]",880
4449,corsi,simultaneous,test,11,5,"[(-175, 173), (-285, -16), (-63, 233), (22, -298), (57, -156), (92, 107), (202, -232), (-252, 118), (-153, -182), (214, 123)]",ccccc,1,2980,"[(1, 710), (4, 560), (3, 330), (2, 450), (0, 400)]",710
4449,corsi,simultaneous,test,12,6,"[(-159, 105), (238, 16), (-231, 219), (39, -80), (-56, -125), (-14, -298), (73, 31), (-136, 180), (243, -71), (-46, 225), (-251, -200), (98, 240)]",cccccc,1,3587,"[(2, 831), (0, 470), (1, 470), (3, 350), (4, 200), (5, 260)]",831
4449,corsi,simultaneous,test,13,6,"[(-161, -218), (22, 270), (-152, 132), (-64, -96), (124, -224), (-255, 231), (131, -126), (275, 250), (-18, -167), (-250, 161), (-9, 41), (131, 273)]",cccccc,1,3416,"[(5, 870), (2, 260), (3, 300), (0, 420), (4, 390), (1, 540)]",870
4449,corsi,simultaneous,test,14,6,"[(172, 284), (-139, 77), (-89, -61), (-36, -191), (297, 53), (174, -254), (-37, -271), (50, -134), (298, 279), (63, 224), (-276, -128), (168, -6)]",cccccc,0,3767,"[(1, 620), (2, 320), (3, 280), (5, 520), (4, 520), (9, 510)]",620
4449,corsi,simultaneous,test,15,7,"[(-231, 39), (218, -88), (-293, -156), (-224, -255), (110, 37), (-96, 182), (-99, -237), (154, -211), (169, 194), (74, 256), (14, -236), (-134, 270), (184, 55), (-92, 106)]",ccccccc,1,6503,"[(5, 920), (4, 570), (1, 280), (3, 580), (2, 240), (0, 280), (6, 310)]",920
4449,corsi,simultaneous,test,16,7,"[(-242, -57), (199, 214), (18, 34), (243, -82), (-100, 230), (-247, 69), (127, -4), (-98, -65), (143, -253), (-44, -232), (-226, -146), (46, -64), (-19, 214), (-206, -222)]",ccccccc,1,4003,"[(5, 690), (0, 190), (2, 450), (6, 260), (3, 310), (1, 360), (4, 1000)]",690
4449,corsi,simultaneous,test,17,7,"[(-6, 15), (148, -42), (23, 175), (-78, -150), (217, -204), (193, 73), (-299, 173), (288, -80), (23, 285), (-139, -266), (-232, -148), (-270, -34), (-161, 235), (5, -153)]",ccccccc,1,5162,"[(6, 450), (0, 300), (3, 380), (1, 490), (4, 240), (5, 190), (2, 1300)]",450
4449,corsi,simultaneous,test,18,8,"[(276, 207), (-59, 54), (-147, -109), (-144, 182), (75, -261), (269, -198), (78, -70), (188, 117), (-90, 274), (-281, 130), (243, 287), (218, -126), (-166, -28), (4, 215), (-144, 53), (-231, -216)]",cccccccc,0,4372,"[(3, 930), (1, 330), (2, 180), (4, 360), (6, 330), (7, 240), (11, 420)]",930
4449,corsi,simultaneous,test,19,8,"[(-183, 250), (-96, -290), (-239, -63), (250, -171), (70, -98), (-245, 158), (-195, 75), (168, 159), (167, -215), (-53, 19), (-151, 166), (53, 244), (-40, 119), (142, -130), (-152, -218), (-254, -159)]",cccccccc,1,4429,"[(0, 900), (5, 210), (6, 300), (2, 230), (1, 490), (4, 390), (7, 620), (3, 440)]",900
4449,corsi,simultaneous,test,20,8,"[(-87, 168), (194, 266), (-18, -46), (-209, -258), (-31, -126), (91, -166), (212, -188), (-265, 250), (-138, -43), (-276, -41), (175, -42), (56, -29), (-236, 112), (210, -112), (130, -300), (-156, 282)]",cccccccc,1,6837,"[(2, 600), (4, 150), (5, 210), (6, 270), (3, 440), (1, 450), (7, 470), (0, 3400)]",600
4449,corsi,simultaneous,test,21,9,"[(23, -5), (265, 88), (-201, -150), (-66, 19), (-199, -225), (210, -74), (-258, 293), (52, 111), (-289, -263), (241, 234), (215, -207), (-265, 103), (20, 272), (-189, -13), (159, 72), (-114, -159), (104, 198), (-177, 61)]",ccccccccc,0,3007,"[(8, 480), (4, 240), (2, 180), (6, 210), (7, 280), (14, 190)]",480
4449,corsi,simultaneous,test,22,9,"[(-14, 262), (61, -121), (-220, 65), (132, 156), (184, 292), (258, 114), (33, -50), (247, 221), (261, -217), (115, 3), (-229, -103), (44, 177), (43, -256), (-197, -14), (184, -215), (-132, -145), (-291, 134), (-99, 265)]",ccccccccc,0,2901,"[(4, 680), (7, 190), (5, 240), (0, 490), (13, 580)]",680
4449,corsi,simultaneous,test,23,9,"[(-69, -172), (-116, 277), (-210, 136), (163, -293), (-205, 59), (298, 150), (259, -106), (-106, -269), (46, 121), (34, 42), (-35, 293), (139, 264), (-287, 243), (97, -167), (-63, 159), (-96, -89), (279, 283), (206, -222)]",ccccccccc,0,4117,"[(4, 700), (2, 150), (1, 320), (7, 240), (6, 670), (13, 320)]",700
4449,corsi,forward,practice,0,2,"[(22, -157), (223, -87), (-19, 229), (-248, 280)]",cc,1,3654,"[(0, 1120), (1, 520)]",1120
4449,corsi,forward,test,0,2,"[(-217, -104), (-214, 227), (-54, 123), (-52, 204)]",cc,1,1942,"[(0, 1150), (1, 580)]",1150
4449,corsi,forward,test,1,2,"[(-243, 262), (102, 18), (-179, -182), (252, -188)]",cc,1,1652,"[(0, 930), (1, 510)]",930
4449,corsi,forward,test,2,2,"[(-130, -36), (202, -240), (247, 121), (-185, 238)]",cc,1,1542,"[(0, 710), (1, 620)]",710
4449,corsi,forward,test,3,3,"[(-203, 180), (24, -213), (199, -196), (247, 253), (-104, 87), (-182, -96)]",ccc,1,2118,"[(0, 850), (1, 470), (2, 480)]",850
4449,corsi,forward,test,4,3,"[(-259, 243), (136, 116), (-77, -137), (-45, 183), (-213, -271), (-109, -238)]",ccc,1,2228,"[(0, 850), (1, 560), (2, 500)]",850
4449,corsi,forward,test,5,3,"[(29, -275), (-243, -2), (254, 275), (-100, 168), (3, -33), (-243, -191)]",ccc,1,2658,"[(0, 840), (1, 610), (2, 890)]",840
4449,corsi,forward,test,6,4,"[(-36, -257), (-129, -94), (-128, 254), (-79, -17), (141, 297), (-131, -253), (-210, 37), (-235, -55)]",cccc,1,3375,"[(0, 1301), (1, 470), (2, 660), (3, 520)]",1301
4449,corsi,forward,test,7,4,"[(-218, -129), (-72, -41), (276, 285), (102, -163), (-186, 26), (-260, 138), (106, -34), (-181, 147)]",cccc,1,3104,"[(0, 700), (1, 460), (2, 770), (3, 750)]",700
4449,corsi,forward,test,8,4,"[(-83, 98), (-175, 105), (158, -199), (14, -32), (263, -80), (265, 227), (-15, -235), (261, 93)]",cccc,1,3444,"[(0, 1250), (1, 650), (2, 580), (3, 540)]",1250
4449,corsi,forward,test,9,5,"[(211, -69), (-16, 194), (290, -229), (-237, -80), (-168, 30), (128, -253), (-159, -226), (-28, -24), (84, -88), (208, 156)]",ccccc,1,3680,"[(0, 970), (1, 500), (2, 670), (3, 590), (4, 420)]",970
4449,corsi,forward,test,10,5,"[(43, -237), (-207, -84), (14, 201), (-56, -26), (264, -291), (235, 150), (-107, -246), (44, 120), (94, -136), (-287, 211)]",ccccc,1,3591,"[(0, 1161), (1, 480), (2, 520), (3, 500), (4, 400)]",1161
4449,corsi,forward,test,11,5,"[(212, -65), (-272, 196), (-190, 278), (70, -86), (60, -247), (134, -240), (-198, -287), (-159, 113), (-6, -49), (-15, -254)]",ccccc,1,3280,"[(0, 1030), (1, 570), (2, 330), (3, 490), (4, 330)]",1030
4449,corsi,forward,test,12,6,"[(-12, -88), (-121, -220), (246, -157), (164, -286), (-108, 79), (256, 112), (139, 142), (-296, -22), (-4, 15), (189, -79), (-179, -137), (160, 213)]",cccccc,1,3546,"[(0, 740), (1, 420), (2, 380), (3, 340), (4, 560), (5, 470)]",740
4449,corsi,forward,test,13,6,"[(298, 270), (148, 116), (186, -52), (-19, 265), (-215, 5), (254, 145), (56, 17), (-40, -213), (-169, 283), (-76, 45), (-270, -276), (-50, -57)]",cccccc,0,3244,"[(0, 770), (1, 390), (2, 280), (4, 1380)]",770
4449,corsi,forward,test,14,6,"[(-69, -90), (198, 198), (-281, -94), (33, 6), (121, 202), (-167, -84), (299, 157), (-92, -210), (129, -175), (248, 28), (-146, 162), (-11, 212)]",cccccc,0,946,"[(1, 840)]",840
4449,corsi,forward,test,15,7,"[(-48, -80), (70, 194), (153, -263), (228, 58), (-265, -269), (-11, 28), (-284, -75), (-262, 17), (-180, -128), (-154, 4), (14, -213), (145, 85), (281, 194), (238, -51)]",ccccccc,0,11285,"[(0, 1260), (1, 4160), (2, 730), (4, 4710)]",1260
4449,corsi,forward,test,16,7,"[(-153, -173), (148, -65), (-267, -185), (-127, 166), (219, 105), (-99, -11), (-272, 2), (-183, 242), (-160, 71), (224, 227), (178, 22), (130, 137), (-61, 95), (-43, -135)]",ccccccc,0,1036,"[(13, 930)]",930
4449,corsi,forward,test,17,7,"[(215, -35), (-177, -108), (-72, -76), (225, 256), (-84, -187), (116, -273), (73, 61), (-281, 252), (-277, -164), (-300, 103), (-266, -2), (-150, 200), (247, -152), (-182, 99)]",ccccccc,0,13360,"[(0, 700), (1, 800), (2, 360), (3, 2860), (4, 2170), (5, 2780), (13, 2950)]",700
4449,corsi,sequence,practice,0,2,"[(109, -63), (-79, 30), (61, 222), (294, 67)]",cx,1,3614,"[(0, 1160), (1, 440)]",1160
4449,corsi,sequence,practice,1,2,"[(-299, 147), (263, 110), (149, -280), (69, -274)]",xc,1,2704,"[(1, 560), (0, 130)]",560
4449,corsi,sequence,practice,2,3,"[(-243, -75), (249, 194), (-245, 237), (-153, 99), (206, 105), (231, -184)]",xcc,1,9633,"[(1, 1830), (2, 4661), (0, 120)]",1830
4449,corsi,sequence,practice,3,3,"[(-87, 85), (-101, -204), (52, -69), (-177, -2), (3, -150), (-71, 177)]",cxc,1,4382,"[(0, 1070), (2, 110), (1, 180)]",1070
4449,corsi,sequence,test,0,2,"[(20, 205), (-110, -74), (-260, -54), (-297, 83)]",cx,1,1372,"[(0, 620), (1, 540)]",620
4449,corsi,sequence,test,1,2,"[(-151, -103), (-216, 77), (85, -284), (264, 73)]",cx,1,1782,"[(0, 910), (1, 660)]",910
4449,corsi,sequence,test,2,2,"[(-132, 279), (232, 79), (272, -77), (-295, -138)]",cx,1,1922,"[(0, 950), (1, 760)]",950
4449,corsi,sequence,test,3,3,"[(296, 140), (158, 54), (178, 127), (53, 156), (-79, -19), (218, -148)]",xcx,1,2038,"[(1, 850), (0, 490), (2, 380)]",850
4449,corsi,sequence,test,4,3,"[(-247, -229), (-222, -54), (-123, -98), (58, 248), (203, -6), (60, -51)]",cxx,1,1998,"[(0, 780), (1, 500), (2, 400)]",780
4449,corsi,sequence,test,5,3,"[(250, -55), (228, -137), (-8, -166), (75, 208), (-20, 117), (-208, -43)]",cxx,1,2367,"[(0, 520), (1, 320), (2, 380)]",520
4449,corsi,sequence,test,6,4,"[(103, 51), (22, -61), (141, 170), (-69, -63), (110, -274), (87, 275), (-89, 202), (-158, 72)]",cxxc,1,2233,"[(0, 660), (3, 410), (1, 270), (2, 470)]",660
4449,corsi,sequence,test,7,4,"[(19, -100), (78, 196), (257, -203), (-289, -160), (231, -105), (100, -75), (-160, -155), (-142, 139)]",cxcx,1,3045,"[(0, 670), (2, 410), (1, 501), (3, 520)]",670
4449,corsi,sequence,test,8,4,"[(-61, -184), (-78, 24), (286, 182), (81, -121), (-252, -11), (-293, 262), (-57, 251), (255, 262)]",cxcx,1,3114,"[(0, 750), (2, 670), (1, 280), (3, 430)]",750
4449,corsi,sequence,test,9,5,"[(62, -65), (-119, -104), (-212, 105), (-103, 123), (140, -11), (61, 208), (96, -144), (276, 185), (185, -257), (21, -160)]",cxxcc,1,3967,"[(0, 770), (3, 450), (4, 540), (1, 980), (2, 700)]",770
4449,corsi,sequence,test,10,5,"[(239, 79), (140, -16), (-254, -54), (253, -36), (-140, -83), (-113, -245), (-291, 101), (204, -290), (-206, 157), (48, 7)]",cxcxx,1,3230,"[(0, 790), (2, 480), (1, 490), (3, 390), (4, 550)]",790
4449,corsi,sequence,test,11,5,"[(34, 233), (-51, -259), (-268, 137), (-189, -237), (168, -102), (-65, 225), (-226, -94), (-158, 103), (170, 5), (296, -263)]",xxccx,1,3201,"[(2, 851), (3, 500), (0, 430), (1, 400), (4, 490)]",851
4449,corsi,sequence,test,12,6,"[(-214, -130), (214, 122), (110, -96), (-255, -7), (49, 99), (72, -199), (-74, 114), (200, -290), (-285, 124), (-226, 246), (102, 222), (-6, -13)]",xccxcx,0,1282,"[(1, 630), (0, 440)]",630
4449,corsi,sequence,test,13,6,"[(-142, -158), (249, -52), (-57, 248), (-87, 4), (37, 237), (114, 170), (115, -80), (-84, 162), (-235, 238), (216, 56), (223, 239), (13, 33)]",cxcxxc,0,3547,"[(0, 870), (2, 470), (5, 430), (1, 310), (3, 430), (7, 400)]",870
4449,corsi,sequence,test,14,6,"[(-6, 86), (241, -210), (57, -104), (-193, 265), (125, 47), (41, 199), (-284, 236), (175, 227), (146, 133), (216, 118), (48, 290), (-183, -208)]",ccxxxc,0,3174,"[(0, 690), (1, 360), (5, 430), (3, 1270)]",690
4451,corsi,simultaneous,practice,0,2,"[(-194, -114), (255, -160), (-285, 153), (-269, -186)]",cc,1,7314,"[(0, 4510), (1, 781)]",4510
4451,corsi,simultaneous,test,0,2,"[(153, -282), (-201, 292), (141, -30), (-130, -168)]",cc,0,2684,"[(0, 390), (0, 1140)]",390
4451,corsi,simultaneous,test,1,2,"[(-134, 7), (74, -23), (117, 278), (-212, -166)]",cc,1,2074,"[(0, 870), (1, 400)]",870
4451,corsi,simultaneous,test,2,2,"[(212, -254), (-274, 53), (59, 269), (-167, -191)]",cc,1,2434,"[(0, 1330), (1, 900)]",1330
4451,corsi,simultaneous,test,3,3,"[(-140, 292), (-122, -187), (17, -288), (-81, -60), (244, -219), (298, 270)]",ccc,1,2316,"[(2, 820), (1, 420), (0, 770)]",820
4451,corsi,simultaneous,test,4,3,"[(19, 212), (48, -166), (-262, -116), (208, -16), (260, -189), (-244, 30)]",ccc,1,2637,"[(2, 1040), (1, 640), (0, 651)]",1040
4451,corsi,simultaneous,test,5,3,"[(-185, 20), (219, 240), (20, 215), (25, -167), (-250, 187), (190, 141)]",ccc,1,3076,"[(0, 1100), (2, 650), (1, 480)]",1100
4451,corsi,simultaneous,test,6,4,"[(-154, -51), (145, 144), (293, -244), (-6, 248), (-264, 153), (-255, -295), (-51, 122), (22, -77)]",cccc,1,3658,"[(2, 1130), (0, 670), (1, 800), (3, 650)]",1130
4451,corsi,simultaneous,test,7,4,"[(-139, -26), (63, 131), (-163, -273), (152, 165), (-278, 37), (-22, 30), (299, -15), (114, 22)]",cccc,1,3328,"[(2, 1100), (0, 680), (1, 750), (3, 390)]",1100
4451,corsi,simultaneous,test,8,4,"[(-221, -190), (-228, -260), (71, -233), (-193, -95), (-60, -228), (234, -97), (287, -4), (191, 204)]",cccc,1,3338,"[(1, 870), (0, 560), (3, 480), (2, 1020)]",870
4451,corsi,simultaneous,test,9,5,"[(-87, -8), (137, 236), (41, 279), (177, 47), (-274, 74), (193, -221), (-165, -51), (115, 141), (-2, -104), (-274, -174)]",ccccc,1,4001,"[(0, 941), (4, 610), (3, 940), (1, 470), (2, 530)]",941
4451,corsi,simultaneous,test,10,5,"[(-106, 180), (83, -239), (124, -167), (248, 97), (152, 229), (-190, -248), (2, -37), (-50, -190), (-184, 13), (216, -139)]",ccccc,1,4070,"[(1, 1420), (2, 500), (3, 550), (4, 450), (0, 640)]",1420
4451,corsi,simultaneous,test,11,5,"[(-175, 173), (-285, -16), (-63, 233), (22, -298), (57, -156), (92, 107), (202, -232), (-252, 118), (-153, -182), (214, 123)]",ccccc,1,3971,"[(3, 950), (4, 570), (1, 551), (0, 650), (2, 740)]",950
4451,corsi,simultaneous,test,12,6,"[(-159, 105), (238, 16), (-231, 219), (39, -80), (-56, -125), (-14, -298), (73, 31), (-136, 180), (243, -71), (-46, 225), (-251, -200), (98, 240)]",cccccc,0,4220,"[(2, 1050), (0, 510), (5, 960), (4, 470), (6, 720)]",1050
4451,corsi,simultaneous,test,13,6,"[(-161, -218), (22, 270), (-152, 132), (-64, -96), (124, -224), (-255, 231), (131, -126), (275, 250), (-18, -167), (-250, 161), (-9, 41), (131, 273)]",cccccc,1,5983,"[(4, 730), (3, 550), (0, 630), (2, 610), (5, 580), (1, 790)]",730
4451,corsi,simultaneous,test,14,6,"[(172, 284), (-139, 77), (-89, -61), (-36, -191), (297, 53), (174, -254), (-37, -271), (50, -134), (298, 279), (63, 224), (-276, -128), (168, -6)]",cccccc,1,5772,"[(5, 500), (3, 670), (2, 470), (1, 630), (4, 650), (0, 730)]",500
4451,corsi,simultaneous,test,15,7,"[(-231, 39), (218, -88), (-293, -156), (-224, -255), (110, 37), (-96, 182), (-99, -237), (154, -211), (169, 194), (74, 256), (14, -236), (-134, 270), (184, 55), (-92, 106)]",ccccccc,0,5273,"[(6, 951), (3, 790), (2, 670), (0, 610), (1, 1200), (12, 440)]",951
4451,corsi,simultaneous,test,16,7,"[(-242, -57), (199, 214), (18, 34), (243, -82), (-100, 230), (-247, 69), (127, -4), (-98, -65), (143, -253), (-44, -232), (-226, -146), (46, -64), (-19, 214), (-206, -222)]",ccccccc,1,9245,"[(0, 2530), (5, 340), (3, 710), (6, 400), (2, 450), (4, 980), (1, 3121)]",2530
4451,corsi,simultaneous,test,17,7,"[(-6, 15), (148, -42), (23, 175), (-78, -150), (217, -204), (193, 73), (-299, 173), (288, -80), (23, 285), (-139, -266), (-232, -148), (-270, -34), (-161, 235), (5, -153)]",ccccccc,1,6254,"[(3, 680), (6, 670), (0, 930), (2, 510), (5, 490), (1, 490), (4, 450)]",680
4451,corsi,simultaneous,test,18,8,"[(276, 207), (-59, 54), (-147, -109), (-144, 182), (75, -261), (269, -198), (78, -70), (188, 117), (-90, 274), (-281, 130), (243, 287), (218, -126), (-166, -28), (4, 215), (-144, 53), (-231, -216)]",cccccccc,0,9317,"[(4, 1750), (2, 931), (3, 1220), (1, 830), (7, 740), (0, 470), (5, 1700), (11, 410)]",1750
4451,corsi,simultaneous,test,19,8,"[(-183, 250), (-96, -290), (-239, -63), (250, -171), (70, -98), (-245, 158), (-195, 75), (168, 159), (167, -215), (-53, 19), (-151, 166), (53, 244), (-40, 119), (142, -130), (-152, -218), (-254, -159)]",cccccccc,0,5080,"[(6, 1820), (5, 470), (0, 460), (1, 1170), (14, 320)]",1820
4451,corsi,simultaneous,test,20,8,"[(-87, 168), (194, 266), (-18, -46), (-209, -258), (-31, -126), (91, -166), (212, -188), (-265, 250), (-138, -43), (-276, -41), (175, -42), (56, -29), (-236, 112), (210, -112), (130, -300), (-156, 282)]",cccccccc,0,8590,"[(7, 2150), (0, 750), (1, 670), (3, 910), (14, 3600)]",2150
4451,corsi,forward,practice,0,2,"[(22, -157), (223, -87), (-19, 229), (-248, 280)]",cc,1,5704,"[(0, 2570), (1, 1130)]",2570
4451,corsi,forward,test,0,2,"[(-217, -104), (-214, 227), (-54, 123), (-52, 204)]",cc,1,2104,"[(0, 1260), (1, 640)]",1260
4451,corsi,forward,test,1,2,"[(-243, 262), (102, 18), (-179, -182), (252, -188)]",cc,1,1814,"[(0, 790), (1, 820)]",790
4451,corsi,forward,test,2,2,"[(-130, -36), (202, -240), (247, 121), (-185, 238)]",cc,1,2154,"[(0, 1000), (1, 950)]",1000
4451,corsi,forward,test,3,3,"[(-203, 180), (24, -213), (199, -196), (247, 253), (-104, 87), (-182, -96)]",ccc,1,2396,"[(0, 970), (1, 650), (2, 470)]",970
4451,corsi,forward,test,4,3,"[(-259, 243), (136, 116), (-77, -137), (-45, 183), (-213, -271), (-109, -238)]",ccc,1,2456,"[(0, 780), (1, 570), (2, 800)]",780
4451,corsi,forward,test,5,3,"[(29, -275), (-243, -2), (254, 275), (-100, 168), (3, -33), (-243, -191)]",ccc,1,2446,"[(0, 850), (1, 580), (2, 710)]",850
4451,corsi,forward,test,6,4,"[(-36, -257), (-129, -94), (-128, 254), (-79, -17), (141, 297), (-131, -253), (-210, 37), (-235, -55)]",cccc,1,3288,"[(0, 1230), (1, 480), (2, 630), (3, 540)]",1230
4451,corsi,forward,test,7,4,"[(-218, -129), (-72, -41), (276, 285), (102, -163), (-186, 26), (-260, 138), (106, -34), (-181, 147)]",cccc,1,3898,"[(0, 950), (1, 460), (2, 1130), (3, 950)]",950
4451,corsi,forward,test,8,4,"[(-83, 98), (-175, 105), (158, -199), (14, -32), (263, -80), (265, 227), (-15, -235), (261, 93)]",cccc,1,3238,"[(0, 1060), (1, 380), (2, 850), (3, 540)]",1060
4451,corsi,forward,test,9,5,"[(211, -69), (-16, 194), (290, -229), (-237, -80), (-168, 30), (128, -253), (-159, -226), (-28, -24), (84, -88), (208, 156)]",ccccc,0,3716,"[(0, 1160), (1, 1070), (6, 1180)]",1160
4451,corsi,forward,test,10,5,"[(43, -237), (-207, -84), (14, 201), (-56, -26), (264, -291), (235, 150), (-107, -246), (44, 120), (94, -136), (-287, 211)]",ccccc,0,3659,"[(0, 860), (1, 810), (2, 900), (7, 681)]",860
4451,corsi,forward,test,11,5,"[(212, -65), (-272, 196), (-190, 278), (70, -86), (60, -247), (134, -240), (-198, -287), (-159, 113), (-6, -49), (-15, -254)]",ccccc,1,5410,"[(0, 1190), (1, 820), (2, 1420), (3, 900), (4, 570)]",1190
4451,corsi,forward,test,12,6,"[(-12, -88), (-121, -220), (246, -157), (164, -286), (-108, 79), (256, 112), (139, 142), (-296, -22), (-4, 15), (189, -79), (-179, -137), (160, 213)]",cccccc,1,11253,"[(0, 1060), (1, 890), (2, 1340), (3, 3430), (4, 990), (5, 2931)]",1060
4451,corsi,forward,test,13,6,"[(298, 270), (148, 116), (186, -52), (-19, 265), (-215, 5), (254, 145), (56, 17), (-40, -213), (-169, 283), (-76, 45), (-270, -276), (-50, -57)]",cccccc,0,2552,"[(5, 2450)]",2450
4451,corsi,forward,test,14,6,"[(-69, -90), (198, 198), (-281, -94), (33, 6), (121, 202), (-167, -84), (299, 157), (-92, -210), (129, -175), (248, 28), (-146, 162), (-11, 212)]",cccccc,0,9859,"[(0, 4420), (1, 1150), (2, 3080), (5, 801)]",4420
4451,corsi,forward,test,15,7,"[(-48, -80), (70, 194), (153, -263), (228, 58), (-265, -269), (-11, 28), (-284, -75), (-262, 17), (-180, -128), (-154, 4), (14, -213), (145, 85), (281, 194), (238, -51)]",ccccccc,0,2874,"[(0, 1600), (2, 1070)]",1600
4451,corsi,forward,test,16,7,"[(-153, -173), (148, -65), (-267, -185), (-127, 166), (219, 105), (-99, -11), (-272, 2), (-183, 242), (-160, 71), (224, 227), (178, 22), (130, 137), (-61, 95), (-43, -135)]",ccccccc,0,13617,"[(0, 3720), (1, 2520), (12, 7071)]",3720
4451,corsi,forward,test,17,7,"[(215, -35), (-177, -108), (-72, -76), (225, 256), (-84, -187), (116, -273), (73, 61), (-281, 252), (-277, -164), (-300, 103), (-266, -2), (-150, 200), (247, -152), (-182, 99)]",ccccccc,0,8369,"[(0, 1311), (1, 650), (2, 570), (6, 5430)]",1311
4451,corsi,sequence,practice,0,2,"[(109, -63), (-79, 30), (61, 222), (294, 67)]",cx,1,6615,"[(0, 4090), (1, 520)]",4090
4451,corsi,sequence,practice,1,2,"[(-299, 147), (263, 110), (149, -280), (69, -274)]",xc,0,3754,"[(0, 2740)]",2740
4451,corsi,sequence,practice,2,3,"[(-243, -75), (249, 194), (-245, 237), (-153, 99), (206, 105), (231, -184)]",xcc,1,5007,"[(1, 1840), (2, 140), (0, 20)]",1840
4451,corsi,sequence,practice,3,3,"[(-87, 85), (-101, -204), (52, -69), (-177, -2), (3, -150), (-71, 177)]",cxc,1,5217,"[(0, 1330), (2, 250), (1, 630)]",1330
4451,corsi,sequence,test,0,2,"[(20, 205), (-110, -74), (-260, -54), (-297, 83)]",cx,1,2014,"[(0, 1220), (1, 590)]",1220
4451,corsi,sequence,test,1,2,"[(-151, -103), (-216, 77), (85, -284), (264, 73)]",cx,1,1374,"[(0, 680), (1, 490)]",680
4451,corsi,sequence,test,2,2,"[(-132, 279), (232, 79), (272, -77), (-295, -138)]",cx,1,1784,"[(0, 790), (1, 790)]",790
4451,corsi,sequence,test,3,3,"[(296, 140), (158, 54), (178, 127), (53, 156), (-79, -19), (218, -148)]",xcx,1,3196,"[(1, 1110), (0, 1120), (2, 660)]",1110
4451,corsi,sequence,test,4,3,"[(-247, -229), (-222, -54), (-123, -98), (58, 248), (203, -6), (60, -51)]",cxx,1,3316,"[(0, 1890), (1, 690), (2, 430)]",1890
4451,corsi,sequence,test,5,3,"[(250, -55), (228, -137), (-8, -166), (75, 208), (-20, 117), (-208, -43)]",cxx,1,4026,"[(0, 2430), (1, 490), (2, 800)]",2430
4451,corsi,sequence,test,6,4,"[(103, 51), (22, -61), (141, 170), (-69, -63), (110, -274), (87, 275), (-89, 202), (-158, 72)]",cxxc,1,3479,"[(0, 1091), (3, 810), (1, 570), (2, 600)]",1091
4451,corsi,sequence,test,7,4,"[(19, -100), (78, 196), (257, -203), (-289, -160), (231, -105), (100, -75), (-160, -155), (-142, 139)]",cxcx,0,4974,"[(0, 1360), (4, 3410)]",1360
4451,corsi,sequence,test,8,4,"[(-61, -184), (-78, 24), (286, 182), (81, -121), (-252, -11), (-293, 262), (-57, 251), (255, 262)]",cxcx,1,4538,"[(0, 1580), (2, 1300), (1, 800), (3, 450)]",1580
4451,corsi,sequence,test,9,5,"[(62, -65), (-119, -104), (-212, 105), (-103, 123), (140, -11), (61, 208), (96, -144), (276, 185), (185, -257), (21, -160)]",cxxcc,1,3460,"[(0, 800), (3, 520), (4, 530), (1, 560), (2, 540)]",800
4451,corsi,sequence,test,10,5,"[(239, 79), (140, -16), (-254, -54), (253, -36), (-140, -83), (-113, -245), (-291, 101), (204, -290), (-206, 157), (48, 7)]",cxcxx,0,9307,"[(0, 1701), (2, 610), (3, 6690)]",1701
4451,corsi,sequence,test,11,5,"[(34, 233), (-51, -259), (-268, 137), (-189, -237), (168, -102), (-65, 225), (-226, -94), (-158, 103), (170, 5), (296, -263)]",xxccx,1,6280,"[(2, 1140), (3, 950), (0, 790), (1, 710), (4, 780)]",1140
4451,corsi,sequence,test,12,6,"[(-214, -130), (214, 122), (110, -96), (-255, -7), (49, 99), (72, -199), (-74, 114), (200, -290), (-285, 124), (-226, 246), (102, 222), (-6, -13)]",xccxcx,0,3192,"[(11, 3090)]",3090
4451,corsi,sequence,test,13,6,"[(-142, -158), (249, -52), (-57, 248), (-87, 4), (37, 237), (114, 170), (115, -80), (-84, 162), (-235, 238), (216, 56), (223, 239), (13, 33)]",cxcxxc,0,3817,"[(0, 390), (2, 830), (11, 911)]",390
4451,corsi,sequence,test,14,6,"[(-6, 86), (241, -210), (57, -104), (-193, 265), (125, 47), (41, 199), (-284, 236), (175, 227), (146, 133), (216, 118), (48, 290), (-183, -208)]",ccxxxc,0,5400,"[(0, 620), (1, 600), (5, 660), (2, 1730), (11, 1280)]",620
4453,corsi,simultaneous,practice,0,2,"[(-194, -114), (255, -160), (-285, 153), (-269, -186)]",cc,1,2815,"[(0, 660), (1, 140)]",660
4453,corsi,simultaneous,test,0,2,"[(153, -282), (-201, 292), (141, -30), (-130, -168)]",cc,1,1701,"[(1, 850), (0, 640)]",850
4453,corsi,simultaneous,test,1,2,"[(-134, 7), (74, -23), (117, 278), (-212, -166)]",cc,1,1381,"[(0, 470), (1, 340)]",470
4453,corsi,simultaneous,test,2,2,"[(212, -254), (-274, 53), (59, 269), (-167, -191)]",cc,1,1650,"[(1, 840), (0, 600)]",840
4453,corsi,simultaneous,test,3,3,"[(-140, 292), (-122, -187), (17, -288), (-81, -60), (244, -219), (298, 270)]",ccc,1,2057,"[(1, 580), (2, 380), (0, 570)]",580
4453,corsi,simultaneous,test,4,3,"[(19, 212), (48, -166), (-262, -116), (208, -16), (260, -189), (-244, 30)]",ccc,1,1658,"[(0, 590), (1, 390), (2, 360)]",590
4453,corsi,simultaneous,test,5,3,"[(-185, 20), (219, 240), (20, 215), (25, -167), (-250, 187), (190, 141)]",ccc,1,2067,"[(0, 560), (2, 520), (1, 320)]",560
4453,corsi,simultaneous,test,6,4,"[(-154, -51), (145, 144), (293, -244), (-6, 248), (-264, 153), (-255, -295), (-51, 122), (22, -77)]",cccc,1,2481,"[(0, 790), (3, 490), (1, 320), (2, 460)]",790
4453,corsi,simultaneous,test,7,4,"[(-139, -26), (63, 131), (-163, -273), (152, 165), (-278, 37), (-22, 30), (299, -15), (114, 22)]",cccc,1,2943,"[(2, 350), (0, 600), (1, 540), (3, 300)]",350
4453,corsi,simultaneous,test,8,4,"[(-221, -190), (-228, -260), (71, -233), (-193, -95), (-60, -228), (234, -97), (287, -4), (191, 204)]",cccc,1,2211,"[(1, 720), (0, 260), (3, 370), (2, 440)]",720
4453,corsi,simultaneous,test,9,5,"[(-87, -8), (137, 236), (41, 279), (177, 47), (-274, 74), (193, -221), (-165, -51), (115, 141), (-2, -104), (-274, -174)]",ccccc,1,2959,"[(0, 580), (3, 410), (1, 410), (2, 260), (4, 540)]",580
4453,corsi,simultaneous,test,10,5,"[(-106, 180), (83, -239), (124, -167), (248, 97), (152, 229), (-190, -248), (2, -37), (-50, -190), (-184, 13), (216, -139)]",ccccc,1,3820,"[(1, 890), (2, 200), (3, 620), (4, 320), (0, 260)]",890
4453,corsi,simultaneous,test,11,5,"[(-175, 173), (-285, -16), (-63, 233), (22, -298), (57, -156), (92, 107), (202, -232), (-252, 118), (-153, -182), (214, 123)]",ccccc,1,3419,"[(3, 450), (4, 270), (1, 460), (0, 470), (2, 250)]",450
4453,corsi,simultaneous,test,12,6,"[(-159, 105), (238, 16), (-231, 219), (39, -80), (-56, -125), (-14, -298), (73, 31), (-136, 180), (243, -71), (-46, 225), (-251, -200), (98, 240)]",cccccc,1,4095,"[(0, 790), (2, 390), (3, 700), (1, 310), (4, 460), (5, 480)]",790
4453,corsi,simultaneous,test,13,6,"[(-161, -218), (22, 270), (-152, 132), (-64, -96), (124, -224), (-255, 231), (131, -126), (275, 250), (-18, -167), (-250, 161), (-9, 41), (131, 273)]",cccccc,1,4286,"[(2, 590), (5, 720), (1, 460), (3, 460), (0, 521), (4, 380)]",590
4453,corsi,simultaneous,test,14,6,"[(172, 284), (-139, 77), (-89, -61), (-36, -191), (297, 53), (174, -254), (-37, -271), (50, -134), (298, 279), (63, 224), (-276, -128), (168, -6)]",cccccc,0,12246,"[(5, 1450), (2, 601), (1, 430), (4, 630), (0, 400), (11, 8101)]",1450
4453,corsi,simultaneous,test,15,7,"[(-231, 39), (218, -88), (-293, -156), (-224, -255), (110, 37), (-96, 182), (-99, -237), (154, -211), (169, 194), (74, 256), (14, -236), (-134, 270), (184, 55), (-92, 106)]",ccccccc,1,4210,"[(5, 940), (4, 420), (1, 400), (6, 430), (3, 270), (2, 241), (0, 500)]",940
4453,corsi,simultaneous,test,16,7,"[(-242, -57), (199, 214), (18, 34), (243, -82), (-100, 230), (-247, 69), (127, -4), (-98, -65), (143, -253), (-44, -232), (-226, -146), (46, -64), (-19, 214), (-206, -222)]",ccccccc,1,3722,"[(0, 890), (5, 240), (4, 551), (2, 470), (6, 180), (3, 260), (1, 390)]",890
4453,corsi,simultaneous,test,17,7,"[(-6, 15), (148, -42), (23, 175), (-78, -150), (217, -204), (193, 73), (-299, 173), (288, -80), (23, 285), (-139, -266), (-232, -148), (-270, -34), (-161, 235), (5, -153)]",ccccccc,1,4630,"[(6, 1020), (3, 830), (0, 470), (2, 470), (4, 480), (1, 310), (5, 310)]",1020
4453,corsi,simultaneous,test,18,8,"[(276, 207), (-59, 54), (-147, -109), (-144, 182), (75, -261), (269, -198), (78, -70), (188, 117), (-90, 274), (-281, 130), (243, 287), (218, -126), (-166, -28), (4, 215), (-144, 53), (-231, -216)]",cccccccc,0,5232,"[(2, 2201), (1, 420), (3, 500), (7, 550), (0, 270), (6, 340), (11, 210)]",2201
4453,corsi,simultaneous,test,19,8,"[(-183, 250), (-96, -290), (-239, -63), (250, -171), (70, -98), (-245, 158), (-195, 75), (168, 159), (167, -215), (-53, 19), (-151, 166), (53, 244), (-40, 119), (142, -130), (-152, -218), (-254, -159)]",cccccccc,0,10366,"[(7, 860), (4, 410), (3, 370), (1, 380), (6, 440), (5, 270), (0, 250), (13, 5551)]",860
4453,corsi,simultaneous,test,20,8,"[(-87, 168), (194, 266), (-18, -46), (-209, -258), (-31, -126), (91, -166), (212, -188), (-265, 250), (-138, -43), (-276, -41), (175, -42), (56, -29), (-236, 112), (210, -112), (130, -300), (-156, 282)]",cccccccc,0,4458,"[(7, 440), (0, 320), (1, 470), (2, 630), (4, 210), (5, 280), (13, 200)]",440
4453,corsi,forward,practice,0,2,"[(22, -157), (223, -87), (-19, 229), (-248, 280)]",cc,1,2994,"[(0, 720), (1, 260)]",720
4453,corsi,forward,test,0,2,"[(-217, -104), (-214, 227), (-54, 123), (-52, 204)]",cc,1,1251,"[(0, 570), (1, 470)]",570
4453,corsi,forward,test,1,2,"[(-243, 262), (102, 18), (-179, -182), (252, -188)]",cc,1,1532,"[(0, 750), (1, 570)]",750
4453,corsi,forward,test,2,2,"[(-130, -36), (202, -240), (247, 121), (-185, 238)]",cc,1,1191,"[(0, 470), (1, 510)]",470
